time,ts_iso,ax,ay,az,wx,wy,wz,roll,pitch,yaw,acc_mag,gyro_mag,baseline_acc,vib,envelope,threshold,enhanced,is_above,is_peak_confirmed
1783053529.771466,2026-07-03T13:38:49.771,0.005859375,0.0341796875,1.04345703125,0.0,0.0,0.0,2.0489501953125,-0.3076171875,-102.89794921875,1.0440331217820877,0.0,1.0440331217820877,0.0,0.0,0.02,0.0,0,0
1783053529.771466,2026-07-03T13:38:49.771,0.00244140625,0.03466796875,1.04443359375,0.0,0.0,0.0,2.0489501953125,-0.3076171875,-102.9034423828125,1.0450116555690987,0.0,1.0450116555690987,0.0,0.0,0.02,0.0,0,0
1783053529.771466,2026-07-03T13:38:49.771,0.00390625,0.03369140625,1.04248046875,0.0,0.0,0.0,2.0489501953125,-0.3076171875,-102.908935546875,1.043032069195087,0.0,1.043032069195087,0.0,0.0,0.02,0.0,0,0
1783053529.771466,2026-07-03T13:38:49.771,0.0048828125,0.0322265625,1.041015625,0.0,0.0,0.0,2.0489501953125,-0.3076171875,-102.9144287109375,1.041525767651774,0.0,1.041525767651774,0.0,0.0,0.02,0.0,0,0
1783053529.771466,2026-07-03T13:38:49.771,0.005859375,0.03564453125,1.04296875,0.0,0.0,0.0,2.0489501953125,-0.3076171875,-102.919921875,1.0435941157174016,0.0,1.0435941157174016,0.0,0.0,0.02,0.0,0,0
1783053529.771466,2026-07-03T13:38:49.771,0.00390625,0.033203125,1.041015625,0.0,0.0,0.0,2.0489501953125,-0.3076171875,-102.919921875,1.0415523211980129,0.0,1.0415523211980129,0.0,0.0,0.02,0.0,0,0
1783053529.771466,2026-07-03T13:38:49.771,0.00390625,0.0361328125,1.04150390625,0.0,0.0,0.0,2.0489501953125,-0.3076171875,-102.9254150390625,1.0421378151003982,0.0,1.0421378151003982,0.0,0.0,0.02,0.0,0,0
1783053529.771466,2026-07-03T13:38:49.771,0.00341796875,0.0341796875,1.04345703125,0.0,0.0,0.0,2.0489501953125,-0.3076171875,-102.930908203125,1.0440222744812666,0.0,1.0440222744812666,0.0,0.0,0.02,0.0,0,0
1783053529.801535,2026-07-03T13:38:49.801,0.0048828125,0.03173828125,1.04248046875,0.0,0.0,0.0,2.04345703125,-0.3076171875,-102.930908203125,1.0429749220761897,0.0,1.0429749220761897,0.0,0.0,0.02,0.0,0,0
1783053529.801535,2026-07-03T13:38:49.801,0.0048828125,0.033203125,1.04296875,0.0,0.0,0.0,2.04345703125,-0.3076171875,-102.9364013671875,1.0435085542745868,0.0,1.0435085542745868,0.0,0.0,0.02,0.0,0,0
1783053529.801535,2026-07-03T13:38:49.801,0.00341796875,0.03271484375,1.04443359375,0.0,0.0,0.0,2.04345703125,-0.3076171875,-102.94189453125,1.0449514224429302,0.0,1.0432703117348368,0.001681110708093403,0.0003362221416186806,0.02,0.0003362221416186806,0,0
1783053529.801535,2026-07-03T13:38:49.801,0.0048828125,0.03369140625,1.04150390625,0.0,0.0,0.0,2.04345703125,-0.3076171875,-102.94189453125,1.0420601419529592,0.0,1.0435085542745868,0.0014484123216276235,0.0005586601776204692,0.02,0.0005586601776204692,0,0
1783053529.801535,2026-07-03T13:38:49.801,0.0068359375,0.03515625,1.044921875,0.0,0.0,0.0,2.04345703125,-0.3076171875,-102.9473876953125,1.0455354689388028,0.0,1.0432703117348368,0.0022651572039660284,0.0008999595828895811,0.02,0.0008999595828895811,0,0
1783053529.801535,2026-07-03T13:38:49.801,0.00390625,0.0322265625,1.04296875,0.0,0.0,0.0,2.04345703125,-0.3076171875,-102.952880859375,1.043473825065196,0.0,1.0435085542745868,3.472920939073809e-05,0.0007269135081898125,0.02,0.0007269135081898125,0,0
1783053529.8025322,2026-07-03T13:38:49.802,0.00390625,0.033203125,1.04296875,0.0,0.0,0.0,2.04345703125,-0.3076171875,-102.952880859375,1.0435044416653867,0.0,1.0434911896698913,1.3251995495400237e-05,0.0005841812056509301,0.02,0.0005841812056509301,0,0
1783053529.8025322,2026-07-03T13:38:49.802,0.00439453125,0.03369140625,1.04443359375,0.0,0.0,0.0,2.04345703125,-0.3076171875,-102.9583740234375,1.044986102545651,0.0,1.0435044416653867,0.0014816608802643572,0.0007636771405736156,0.02,0.0007636771405736156,0,0
1783053529.8439343,2026-07-03T13:38:49.843,0.00439453125,0.0341796875,1.04345703125,0.0,0.0,0.0,2.04345703125,-0.3076171875,-102.9638671875,1.0440259283214992,0.0,1.0435064979699868,0.0005194303515123622,0.000714827782761365,0.02,0.000714827782761365,0,0
1783053529.8439343,2026-07-03T13:38:49.843,0.00439453125,0.0322265625,1.04345703125,0.0,0.0,0.0,2.04345703125,-0.3076171875,-102.9693603515625,1.043963811298331,0.0,1.0435085542745868,0.00045525702374416,0.0006629136309579239,0.02,0.0006629136309579239,0,0
1783053529.8439343,2026-07-03T13:38:49.843,0.00439453125,0.03515625,1.04345703125,0.0,0.0,0.0,2.0379638671875,-0.3076171875,-102.9693603515625,1.044058355593227,0.0,1.0435513349959942,0.0005070205972328434,0.0006317350242129079,0.02,0.0006317350242129079,0,0
1783053529.8439343,2026-07-03T13:38:49.843,0.005859375,0.03369140625,1.04150390625,0.0,0.0,0.0,2.0379638671875,-0.3076171875,-102.974853515625,1.042065175439858,0.0,1.0435941157174016,0.0015289402775435779,0.0008111760748790418,0.02,0.0008111760748790418,0,0
1783053529.8439343,2026-07-03T13:38:49.843,0.00341796875,0.03369140625,1.04443359375,0.0,0.0,0.0,2.0379638671875,-0.3076171875,-102.9803466796875,1.0449824520627218,0.0,1.0435513349959942,0.0014311170667276052,0.0009351642732487545,0.02,0.0009351642732487545,0,0
1783053529.8439343,2026-07-03T13:38:49.843,0.0068359375,0.0322265625,1.041015625,0.0,0.0,0.0,2.0379638671875,-0.3076171875,-102.9803466796875,1.0415367554081858,0.0,1.0435941157174016,0.002057360309215772,0.0011596034804421582,0.02,0.0011596034804421582,0,0
1783053529.8439343,2026-07-03T13:38:49.843,0.00439453125,0.03173828125,1.0439453125,0.0,0.0,0.0,2.0379638671875,-0.3076171875,-102.98583984375,1.0444369037392034,0.0,1.0435513349959942,0.0008855687432092196,0.0011047965329955705,0.02,0.0011047965329955705,0,0
1783053529.8439343,2026-07-03T13:38:49.843,0.00537109375,0.03369140625,1.04296875,0.0,0.0,0.0,2.0379638671875,-0.3076171875,-102.98583984375,1.0435266038677387,0.0,1.0435941157174016,6.751184966291568e-05,0.0008973395963290396,0.02,0.0008973395963290396,0,0
1783053529.8879044,2026-07-03T13:38:49.887,0.0078125,0.03564453125,1.04296875,0.0,0.0,0.0,2.0379638671875,-0.3076171875,-102.9913330078125,1.043606909348939,0.0,1.0435603597925702,4.654955636884672e-05,0.000727181588337001,0.02,0.000727181588337001,0,0
1783053529.8879044,2026-07-03T13:38:49.887,0.00634765625,0.03662109375,1.04248046875,0.0,0.0,0.0,2.0379638671875,-0.3076171875,-102.9913330078125,1.0431428113985803,0.0,1.0435941157174016,0.0004513043188212329,0.0006720061344338475,0.02,0.0006720061344338475,0,0
1783053529.8879044,2026-07-03T13:38:49.887,0.00341796875,0.03271484375,1.04345703125,0.0,0.0,0.0,2.0379638671875,-0.3076171875,-102.996826171875,1.043975344333872,0.0,1.0435603597925702,0.0004149845413017328,0.0006206018158074246,0.02,0.0006206018158074246,0,0
1783053529.8879044,2026-07-03T13:38:49.887,0.00634765625,0.03271484375,1.04296875,0.0,0.0,0.0,2.0379638671875,-0.3076171875,-102.996826171875,1.043501014478672,0.0,1.0435941157174016,9.310123872952047e-05,0.0005151017003918438,0.02,0.0005151017003918438,0,0
1783053529.8879044,2026-07-03T13:38:49.887,0.00537109375,0.03271484375,1.04296875,0.0,0.0,0.0,2.032470703125,-0.3076171875,-103.0023193359375,1.0434955309565157,0.0,1.0435603597925702,6.482883605452017e-05,0.00042504712752437914,0.02,0.00042504712752437914,0,0
1783053529.8879044,2026-07-03T13:38:49.887,0.0048828125,0.03466796875,1.04296875,0.0,0.0,0.0,2.032470703125,-0.3076171875,-103.0023193359375,1.0435561908166342,0.0,1.0435266038677387,2.9586948895543586e-05,0.00034595509179861206,0.02,0.00034595509179861206,0,0
1783053529.8879044,2026-07-03T13:38:49.887,0.005859375,0.03515625,1.0439453125,0.0,0.0,0.0,2.032470703125,-0.3076171875,-103.0023193359375,1.0445535456261568,0.0,1.0435413973421865,0.0010121482839702267,0.00047919373023293504,0.02,0.00047919373023293504,0,0
1783053529.8879044,2026-07-03T13:38:49.887,0.00634765625,0.03369140625,1.04541015625,0.0,0.0,0.0,2.032470703125,-0.3076171875,-103.0078125,1.045972178590626,0.0,1.0435561908166342,0.002415987773991768,0.0008665525389847017,0.02,0.0008665525389847017,0,0
1783053529.9180057,2026-07-03T13:38:49.918,0.0068359375,0.0341796875,1.041015625,0.0,0.0,0.0,2.032470703125,-0.3076171875,-103.0078125,1.0415990171717915,0.0,1.0435751532670179,0.0019761360952263995,0.0010884692502330412,0.02,0.0010884692502330412,0,0
1783053529.9180057,2026-07-03T13:38:49.918,0.00634765625,0.03369140625,1.0419921875,0.0,0.0,0.0,2.032470703125,-0.3076171875,-103.0133056640625,1.0425560524048603,0.0,1.0435561908166342,0.001000138411773932,0.0010708030825412195,0.02,0.0010708030825412195,0,0
1783053529.9180057,2026-07-03T13:38:49.918,0.00439453125,0.03466796875,1.0419921875,0.0,0.0,0.0,2.032470703125,-0.3076171875,-103.0133056640625,1.0425780060854888,0.0,1.0435413973421865,0.0009633912566977543,0.0010493207173725265,0.02,0.0010493207173725265,0,0
1783053529.9180057,2026-07-03T13:38:49.918,0.00537109375,0.033203125,1.044921875,0.0,0.0,0.0,2.032470703125,-0.3076171875,-103.0133056640625,1.0454630653501598,0.0,1.0435266038677387,0.0019364614824211035,0.001226748870382242,0.02,0.001226748870382242,0,0
1783053529.9180057,2026-07-03T13:38:49.918,0.005859375,0.0341796875,1.04296875,0.0,0.0,0.0,2.032470703125,-0.3076171875,-103.018798828125,1.043545110088467,0.0,1.0435413973421865,3.712746280415402e-06,0.0009821416455618767,0.02,0.0009821416455618767,0,0
1783053529.9180057,2026-07-03T13:38:49.918,0.00439453125,0.033203125,1.04248046875,0.0,0.0,0.0,2.032470703125,-0.3076171875,-103.0242919921875,1.0430183541721079,0.0,1.043545110088467,0.0005267559163590896,0.0008910644997213193,0.02,0.0008910644997213193,0,0
1783053529.9180057,2026-07-03T13:38:49.918,0.005859375,0.0341796875,1.0458984375,0.0,0.0,0.0,2.032470703125,-0.3076171875,-103.0242919921875,1.046473184022376,0.0,1.0435358569781028,0.002937327044273186,0.0013003170086316926,0.02,0.0013003170086316926,0,0
1783053529.9180057,2026-07-03T13:38:49.918,0.005859375,0.03564453125,1.0439453125,0.0,0.0,0.0,2.0269775390625,-0.3076171875,-103.0242919921875,1.0445700935667963,0.0,1.043545110088467,0.0010249834783293554,0.0012452503025712253,0.02,0.0012452503025712253,0,0
1783053529.9728634,2026-07-03T13:38:49.972,0.00537109375,0.03466796875,1.04345703125,0.0,0.0,0.0,2.0269775390625,-0.3076171875,-103.0242919921875,1.0440465951145983,0.0,1.0435506504525507,0.0004959446620476093,0.001095389174466502,0.02,0.001095389174466502,0,0
1783053529.9728634,2026-07-03T13:38:49.972,0.005859375,0.03466796875,1.044921875,0.0,0.0,0.0,2.0269775390625,-0.3076171875,-103.02978515625,1.0455132352993706,0.0,1.0435561908166342,0.0019570444827363698,0.0012677202361204756,0.02,0.0012677202361204756,0,0
1783053529.9728634,2026-07-03T13:38:49.972,0.00439453125,0.03515625,1.044921875,0.0,0.0,0.0,2.0269775390625,-0.3076171875,-103.02978515625,1.0455223568496683,0.0,1.0435751532670179,0.0019472035826504364,0.0014036169054264676,0.02,0.0014036169054264676,0,0
1783053529.9728634,2026-07-03T13:38:49.972,0.00537109375,0.033203125,1.04296875,0.0,0.0,0.0,2.0269775390625,-0.3076171875,-103.0352783203125,1.0435109532891351,0.0,1.0435941157174016,8.316242826644782e-05,0.0011395260099944639,0.02,0.0011395260099944639,0,0
1783053529.9728634,2026-07-03T13:38:49.972,0.00439453125,0.03173828125,1.0439453125,0.0,0.0,0.0,2.0269775390625,-0.3076171875,-103.040771484375,1.0444369037392034,0.0,1.0435751532670179,0.0008617504721855074,0.0010839709024326727,0.02,0.0010839709024326727,0,0
1783053529.9738834,2026-07-03T13:38:49.973,0.00634765625,0.033203125,1.04736328125,0.0,0.0,0.0,2.0269775390625,-0.3076171875,-103.040771484375,1.0479086711924854,0.0,1.0435941157174016,0.004314555475083859,0.00173008781696291,0.02,0.00173008781696291,0,0
1783053529.9738834,2026-07-03T13:38:49.973,0.0078125,0.03173828125,1.04248046875,0.0,0.0,0.0,2.0269775390625,-0.3076171875,-103.0462646484375,1.0429927523133484,0.0,1.0436005125331702,0.0006077602198217846,0.0015056222975346851,0.02,0.0015056222975346851,0,0
1783053529.9738834,2026-07-03T13:38:49.973,0.00439453125,0.03125,1.04248046875,0.0,0.0,0.0,2.0269775390625,-0.3076171875,-103.0462646484375,1.0429580059283916,0.0,1.0435941157174016,0.0006361097890099643,0.0013317197958297412,0.02,0.0013317197958297412,0,0
1783053530.0097773,2026-07-03T13:38:50.009,0.00537109375,0.033203125,1.04248046875,0.0,0.0,0.0,2.0269775390625,-0.3076171875,-103.0517578125,1.0430229258664723,0.0,1.0435751532670179,0.0005522274005456129,0.0011758213167729157,0.02,0.0011758213167729157,0,0
1783053530.0097773,2026-07-03T13:38:50.009,0.0068359375,0.033203125,1.04443359375,0.0,0.0,0.0,2.0269775390625,-0.3076171875,-103.0572509765625,1.044983592840007,0.0,1.0435561908166342,0.0014274020233728812,0.0012261374580929088,0.02,0.0012261374580929088,0,0
1783053530.0097773,2026-07-03T13:38:50.009,0.00390625,0.0341796875,1.0419921875,0.0,0.0,0.0,2.021484375,-0.3076171875,-103.0572509765625,1.0425599400694885,0.0,1.0435751532670179,0.0010152131975293965,0.0011839526059802064,0.02,0.0011839526059802064,0,0
1783053530.0097773,2026-07-03T13:38:50.009,0.00341796875,0.0341796875,1.0439453125,0.0,0.0,0.0,2.021484375,-0.3076171875,-103.062744140625,1.044510291494869,0.0,1.0435561908166342,0.0009541006782347594,0.001137982220431117,0.02,0.001137982220431117,0,0
1783053530.0097773,2026-07-03T13:38:50.009,0.00537109375,0.03515625,1.04345703125,0.0,0.0,0.0,2.021484375,-0.3076171875,-103.062744140625,1.0440629227336815,0.0,1.0435751532670179,0.0004877694666636234,0.0010079396696776183,0.02,0.0010079396696776183,0,0
1783053530.0097773,2026-07-03T13:38:50.009,0.0048828125,0.037109375,1.04248046875,0.0,0.0,0.0,2.021484375,-0.3076171875,-103.0682373046875,1.0431521822323053,0.0,1.0435941157174016,0.0004419334850962464,0.000894738432761344,0.02,0.000894738432761344,0,0
1783053530.0097773,2026-07-03T13:38:50.009,0.00439453125,0.03662109375,1.04296875,0.0,0.0,0.0,2.021484375,-0.3076171875,-103.0682373046875,1.0436207308639074,0.0,1.0435751532670179,4.557759688950114e-05,0.0007249062655869755,0.02,0.0007249062655869755,0,0
1783053530.0107956,2026-07-03T13:38:50.010,0.00439453125,0.0341796875,1.0419921875,0.0,0.0,0.0,2.021484375,-0.3076171875,-103.07373046875,1.0425618838963662,0.0,1.0435941157174016,0.001032231821035401,0.0007863713766766606,0.02,0.0007863713766766606,0,0
1783053530.0404844,2026-07-03T13:38:50.040,0.00439453125,0.03466796875,1.04345703125,0.0,0.0,0.0,2.021484375,-0.3076171875,-103.07373046875,1.044042027902719,0.0,1.0435751532670179,0.00046687463570105336,0.0007224720284815391,0.02,0.0007224720284815391,0,0
1783053530.0404844,2026-07-03T13:38:50.040,0.00439453125,0.03466796875,1.0419921875,0.0,0.0,0.0,2.021484375,-0.3076171875,-103.0792236328125,1.0425780060854888,0.0,1.0435941157174016,0.0010161096319127871,0.0007811995491677887,0.02,0.0007811995491677887,0,0
1783053530.0404844,2026-07-03T13:38:50.040,0.0029296875,0.0341796875,1.04248046875,0.0,0.0,0.0,2.021484375,-0.3076171875,-103.084716796875,1.0430447554307845,0.0,1.0435751532670179,0.0005303978362334316,0.0007310392065809173,0.02,0.0007310392065809173,0,0
1783053530.0404844,2026-07-03T13:38:50.040,0.001953125,0.03466796875,1.0439453125,0.0,0.0,0.0,2.021484375,-0.3076171875,-103.0902099609375,1.044522617392864,0.0,1.0435561908166342,0.0009664265762296953,0.0007781166805106729,0.02,0.0007781166805106729,0,0
1783053530.0404844,2026-07-03T13:38:50.040,0.00439453125,0.033203125,1.04296875,0.0,0.0,0.0,2.021484375,-0.3076171875,-103.0902099609375,1.0435063837328622,0.0,1.0435751532670179,6.87695341556882e-05,0.000636247251239676,0.02,0.000636247251239676,0,0
1783053530.0404844,2026-07-03T13:38:50.040,0.00634765625,0.03369140625,1.03955078125,0.0,0.0,0.0,2.021484375,-0.3076171875,-103.095703125,1.0401159696843694,0.0,1.0435561908166342,0.0034402211322648313,0.0011970420274447073,0.02,0.0011970420274447073,0,0
1783053530.0404844,2026-07-03T13:38:50.040,0.00390625,0.033203125,1.0419921875,0.0,0.0,0.0,2.021484375,-0.3076171875,-103.1011962890625,1.0425283809613355,0.0,1.0435506504525507,0.0010222694912151997,0.0011620875201988057,0.02,0.0011620875201988057,0,0
1783053530.0404844,2026-07-03T13:38:50.040,0.0048828125,0.03466796875,1.04296875,0.0,0.0,0.0,2.0159912109375,-0.3076171875,-103.1011962890625,1.0435561908166342,0.0,1.043545110088467,1.1080728167245368e-05,0.0009318861617924937,0.02,0.0009318861617924937,0,0
1783053530.0826187,2026-07-03T13:38:50.082,0.00634765625,0.0322265625,1.04296875,0.0,0.0,0.0,2.0159912109375,-0.3076171875,-103.106689453125,1.0434858204820021,0.0,1.0435506504525507,6.482997054857442e-05,0.0007584749235437099,0.02,0.0007584749235437099,0,0
1783053530.0826187,2026-07-03T13:38:50.082,0.00439453125,0.0341796875,1.044921875,0.0,0.0,0.0,2.0159912109375,-0.3076171875,-103.1121826171875,1.0454899749859012,0.0,1.043545110088467,0.0019448648974342841,0.0009957529183218248,0.02,0.0009957529183218248,0,0
1783053530.0826187,2026-07-03T13:38:50.082,0.0068359375,0.03515625,1.0419921875,0.0,0.0,0.0,2.0159912109375,-0.3076171875,-103.11767578125,1.0426075056158965,0.0,1.0435506504525507,0.0009431448366541417,0.0009852313019882881,0.02,0.0009852313019882881,0,0
1783053530.0826187,2026-07-03T13:38:50.082,0.00732421875,0.03076171875,1.04345703125,0.0,0.0,0.0,2.0159912109375,-0.3076171875,-103.11767578125,1.0439360629779084,0.0,1.043545110088467,0.0003909528894414649,0.0008663756194789235,0.02,0.0008663756194789235,0,0
1783053530.0826187,2026-07-03T13:38:50.082,0.00732421875,0.03662109375,1.04150390625,0.0,0.0,0.0,2.0159912109375,-0.3076171875,-103.1231689453125,1.0421732751427437,0.0,1.0435506504525507,0.0013773753098069719,0.0009685755575445333,0.02,0.0009685755575445333,0,0
1783053530.0826187,2026-07-03T13:38:50.082,0.00634765625,0.033203125,1.04248046875,0.0,0.0,0.0,2.0159912109375,-0.3076171875,-103.128662109375,1.0430284118732593,0.0,1.043545110088467,0.0005166982152076116,0.000878200089077149,0.02,0.000878200089077149,0,0
1783053530.0826187,2026-07-03T13:38:50.082,0.00439453125,0.03369140625,1.04052734375,0.0,0.0,0.0,2.0159912109375,-0.3076171875,-103.1341552734375,1.0410819256194204,0.0,1.0435358569781028,0.0024539313586824374,0.0011933463429982067,0.02,0.0011933463429982067,0,0
1783053530.0826187,2026-07-03T13:38:50.082,0.0029296875,0.03173828125,1.041015625,0.0,0.0,0.0,2.0159912109375,-0.3076171875,-103.1396484375,1.0415034484146908,0.0,1.0435266038677387,0.0020231554530478757,0.0013593081650081407,0.02,0.0013593081650081407,0,0
1783053530.1285172,2026-07-03T13:38:50.128,0.0068359375,0.03369140625,1.04345703125,0.0,0.0,0.0,2.0159912109375,-0.3076171875,-103.1451416015625,1.0440231879425237,0.0,1.043518778578437,0.0005044093640866887,0.0011883284048238502,0.02,0.0011883284048238502,0,0
1783053530.1285172,2026-07-03T13:38:50.128,0.00439453125,0.0341796875,1.04296875,0.0,0.0,0.0,2.0159912109375,-0.3076171875,-103.150634765625,1.0435379132638485,0.0,1.0435266038677387,1.1309396109826508e-05,0.0009529246030810456,0.02,0.0009529246030810456,0,0
1783053530.1285172,2026-07-03T13:38:50.128,0.00341796875,0.03564453125,1.04248046875,0.0,0.0,0.0,2.0159912109375,-0.3076171875,-103.1561279296875,1.0430952702623226,0.0,1.0435322585657936,0.0004369883034709421,0.0008497373431590249,0.02,0.0008497373431590249,0,0
1783053530.1285172,2026-07-03T13:38:50.128,0.0048828125,0.03466796875,1.0419921875,0.0,0.0,0.0,2.010498046875,-0.3076171875,-103.16162109375,1.0425801785599975,0.0,1.0435266038677387,0.0009464253077411389,0.0008690749360754477,0.02,0.0008690749360754477,0,0
1783053530.1285172,2026-07-03T13:38:50.128,0.0087890625,0.03564453125,1.04296875,0.0,0.0,0.0,2.010498046875,-0.3076171875,-103.1671142578125,1.043614676834426,0.0,1.043518778578437,9.589825598910195e-05,0.0007144396000581786,0.02,0.0007144396000581786,0,0
1783053530.1285172,2026-07-03T13:38:50.128,0.00537109375,0.033203125,1.0419921875,0.0,0.0,0.0,2.010498046875,-0.3021240234375,-103.172607421875,1.0425348986815128,0.0,1.0435266038677387,0.000991705186225822,0.0007698927172917073,0.02,0.0007698927172917073,0,0
1783053530.1285172,2026-07-03T13:38:50.128,0.00390625,0.03564453125,1.0439453125,0.0,0.0,0.0,2.010498046875,-0.3021240234375,-103.172607421875,1.0445609637009308,0.0,1.043518778578437,0.0010421851224937662,0.000824351198332119,0.02,0.000824351198332119,0,0
1783053530.1285172,2026-07-03T13:38:50.128,0.00537109375,0.03466796875,1.04443359375,0.0,0.0,0.0,2.010498046875,-0.3021240234375,-103.1781005859375,1.0450226066735888,0.0,1.0435266038677387,0.0014960028058501607,0.0009586815198357275,0.02,0.0009586815198357275,0,0
1783053530.1580637,2026-07-03T13:38:50.158,0.00634765625,0.0322265625,1.04248046875,0.0,0.0,0.0,2.010498046875,-0.3021240234375,-103.18359375,1.042997781299488,0.0,1.0435322585657936,0.0005344772663056219,0.0008738406691297064,0.02,0.0008738406691297064,0,0
1783053530.1580637,2026-07-03T13:38:50.158,0.00341796875,0.03369140625,1.0419921875,0.0,0.0,0.0,2.010498046875,-0.3021240234375,-103.18359375,1.0425423311197075,0.0,1.0435266038677387,0.0009842727480311453,0.0008959270849099941,0.02,0.0008959270849099941,0,0
1783053530.1580637,2026-07-03T13:38:50.158,0.00537109375,0.03369140625,1.044921875,0.0,0.0,0.0,2.010498046875,-0.3021240234375,-103.1890869140625,1.0454786867060895,0.0,1.043518778578437,0.0019599081276524544,0.0011087232934584863,0.02,0.0011087232934584863,0,0
1783053530.1580637,2026-07-03T13:38:50.158,0.00537109375,0.03515625,1.04248046875,0.0,0.0,0.0,2.010498046875,-0.3021240234375,-103.194580078125,1.0430869274836847,0.0,1.0435266038677387,0.00043967638405395526,0.0009749139115775801,0.02,0.0009749139115775801,0,0
1783053530.1580637,2026-07-03T13:38:50.158,0.00146484375,0.03515625,1.041015625,0.0,0.0,0.0,2.010498046875,-0.3021240234375,-103.194580078125,1.0416101186026445,0.0,1.043518778578437,0.0019086599757924816,0.0011616631244205605,0.02,0.0011616631244205605,0,0
1783053530.1580637,2026-07-03T13:38:50.158,0.00439453125,0.0322265625,1.0419921875,0.0,0.0,0.0,2.010498046875,-0.3021240234375,-103.2000732421875,1.0424996796385642,0.0,1.0435109532891351,0.0010112736505709652,0.0011315852296506414,0.02,0.0011315852296506414,0,0
1783053530.1580637,2026-07-03T13:38:50.158,0.00537109375,0.03125,1.04150390625,0.0,0.0,0.0,2.010498046875,-0.3021240234375,-103.20556640625,1.0419864672259809,0.0,1.043509753781861,0.0015232865558800768,0.0012099254948965284,0.02,0.0012099254948965284,0,0
1783053530.1580637,2026-07-03T13:38:50.158,0.0029296875,0.03125,1.04296875,0.0,0.0,0.0,2.010498046875,-0.3021240234375,-103.2110595703125,1.0434409226426813,0.0,1.0435085542745868,6.763163190548482e-05,0.0009814667222983197,0.02,0.0009814667222983197,0,0
1783053530.2056823,2026-07-03T13:38:50.205,0.0048828125,0.03271484375,1.04150390625,0.0,0.0,0.0,2.010498046875,-0.3021240234375,-103.2110595703125,1.0420290253123978,0.0,1.0435074690037245,0.0014784436913266585,0.0010808621161039877,0.02,0.0010808621161039877,0,0
1783053530.2056823,2026-07-03T13:38:50.205,0.005859375,0.033203125,1.04150390625,0.0,0.0,0.0,2.0050048828125,-0.3021240234375,-103.216552734375,1.042049502912009,0.0,1.0435063837328622,0.001456880820853268,0.0011560658570538437,0.02,0.0011560658570538437,0,0
1783053530.2056823,2026-07-03T13:38:50.205,0.0048828125,0.0341796875,1.0439453125,0.0,0.0,0.0,2.0050048828125,-0.3021240234375,-103.2220458984375,1.0445161120759365,0.0,1.0435054126991243,0.0010106993768121963,0.0011269925610055142,0.02,0.0011269925610055142,0,0
1783053530.2056823,2026-07-03T13:38:50.205,0.0068359375,0.03369140625,1.04345703125,0.0,0.0,0.0,2.0050048828125,-0.3021240234375,-103.2275390625,1.0440231879425237,0.0,1.0435063837328622,0.0005168042096614922,0.0010049548907367098,0.02,0.0010049548907367098,0,0
1783053530.2056823,2026-07-03T13:38:50.205,0.00390625,0.03466796875,1.0439453125,0.0,0.0,0.0,2.0050048828125,-0.3021240234375,-103.2275390625,1.0445280955230625,0.0,1.0435074690037245,0.001020626519337986,0.001008089216456965,0.02,0.001008089216456965,0,0
1783053530.2056823,2026-07-03T13:38:50.205,0.0029296875,0.03173828125,1.0439453125,0.0,0.0,0.0,2.0050048828125,-0.3021240234375,-103.2330322265625,1.0444317675445698,0.0,1.0435085542745868,0.0009232132699830142,0.0009911140271621748,0.02,0.0009911140271621748,0,0
1783053530.206681,2026-07-03T13:38:50.206,0.00439453125,0.0341796875,1.041015625,0.0,0.0,0.0,2.0050048828125,-0.3021240234375,-103.238525390625,1.041585855528312,0.0,1.043509753781861,0.0019238982535489946,0.0011776708724395388,0.02,0.0011776708724395388,0,0
1783053530.206681,2026-07-03T13:38:50.206,0.00439453125,0.033203125,1.04345703125,0.0,0.0,0.0,2.0050048828125,-0.3021240234375,-103.238525390625,1.0439944135289883,0.0,1.0435085542745868,0.00048585925440147726,0.0010393085488319266,0.02,0.0010393085488319266,0,0
1783053530.2532256,2026-07-03T13:38:50.253,0.00390625,0.0341796875,1.04296875,0.0,0.0,0.0,2.0050048828125,-0.3021240234375,-103.2440185546875,1.043535971255051,0.0,1.043509753781861,2.6217473189982243e-05,0.0008366903337035377,0.02,0.0008366903337035377,0,0
1783053530.2532256,2026-07-03T13:38:50.253,0.005859375,0.033203125,1.04443359375,0.0,0.0,0.0,2.0050048828125,-0.3021240234375,-103.24951171875,1.0449776607845243,0.0,1.0435109532891351,0.0014667074953891301,0.0009626937660406563,0.02,0.0009626937660406563,0,0
1783053530.2532256,2026-07-03T13:38:50.253,0.0048828125,0.033203125,1.0439453125,0.0,0.0,0.0,2.0050048828125,-0.3021240234375,-103.2550048828125,1.044484612073533,0.0,1.043518778578437,0.0009658334950959357,0.0009633217118517123,0.02,0.0009633217118517123,0,0
1783053530.2532256,2026-07-03T13:38:50.253,0.005859375,0.033203125,1.04296875,0.0,0.0,0.0,2.0050048828125,-0.3021240234375,-103.2550048828125,1.0435135807749312,0.0,1.0435266038677387,1.3023092807484815e-05,0.0007732619880428668,0.02,0.0007732619880428668,0,0
1783053530.2532256,2026-07-03T13:38:50.253,0.00537109375,0.033203125,1.04248046875,0.0,0.0,0.0,2.0050048828125,-0.3021240234375,-103.260498046875,1.0430229258664723,0.0,1.043520092321335,0.0004971664548627519,0.0007180428814068439,0.02,0.0007180428814068439,0,0
1783053530.2532256,2026-07-03T13:38:50.253,0.0048828125,0.03173828125,1.04443359375,0.0,0.0,0.0,1.99951171875,-0.3021240234375,-103.260498046875,1.0449271228694155,0.0,1.0435135807749312,0.0014135420944842991,0.0008571427240223349,0.02,0.0008571427240223349,0,0
1783053530.2532256,2026-07-03T13:38:50.253,0.00390625,0.03466796875,1.0419921875,0.0,0.0,0.0,1.99951171875,-0.3021240234375,-103.2659912109375,1.04257606228867,0.0,1.043520092321335,0.0009440300326650775,0.0008745201857508835,0.02,0.0008745201857508835,0,0
1783053530.2532256,2026-07-03T13:38:50.253,0.00537109375,0.03515625,1.04443359375,0.0,0.0,0.0,1.99951171875,-0.3021240234375,-103.271484375,1.045038919043532,0.0,1.0435135807749312,0.0015253382686009065,0.0010046838023208883,0.02,0.0010046838023208883,0,0
1783053530.2776825,2026-07-03T13:38:50.277,0.00634765625,0.03173828125,1.04248046875,0.0,0.0,0.0,1.99951171875,-0.3021240234375,-103.271484375,1.0429828085648354,0.0,1.043520092321335,0.0005372837564996402,0.0009112037931566386,0.02,0.0009112037931566386,0,0
1783053530.2776825,2026-07-03T13:38:50.277,0.00390625,0.033203125,1.04296875,0.0,0.0,0.0,1.99951171875,-0.3021240234375,-103.2769775390625,1.0435044416653867,0.0,1.0435135807749312,9.139109544475943e-06,0.0007307908564342061,0.02,0.0007307908564342061,0,0
1783053530.2776825,2026-07-03T13:38:50.277,0.0068359375,0.033203125,1.0419921875,0.0,0.0,0.0,1.99951171875,-0.3021240234375,-103.2769775390625,1.0425434745670343,0.0,1.0435122670320331,0.0009687924649988133,0.0007783911781471276,0.02,0.0007783911781471276,0,0
1783053530.2776825,2026-07-03T13:38:50.277,0.00390625,0.033203125,1.0439453125,0.0,0.0,0.0,1.99951171875,-0.3021240234375,-103.282470703125,1.0444805033075297,0.0,1.0435109532891351,0.0009695500183946049,0.0008166229461966231,0.02,0.0008166229461966231,0,0
1783053530.2776825,2026-07-03T13:38:50.277,0.00634765625,0.03466796875,1.0419921875,0.0,0.0,0.0,1.99951171875,-0.3021240234375,-103.282470703125,1.0425880680346167,0.0,1.0435122670320331,0.0009241989974164699,0.0008381381564405926,0.02,0.0008381381564405926,0,0
1783053530.2776825,2026-07-03T13:38:50.277,0.00634765625,0.03369140625,1.04541015625,0.0,0.0,0.0,1.99951171875,-0.3021240234375,-103.282470703125,1.045972178590626,0.0,1.0435109532891351,0.0024612253014908436,0.001162755585450643,0.02,0.001162755585450643,0,0
1783053530.2776825,2026-07-03T13:38:50.277,0.005859375,0.03369140625,1.04345703125,0.0,0.0,0.0,1.99951171875,-0.3021240234375,-103.2879638671875,1.0440172504300667,0.0,1.0435122670320331,0.0005049833980335094,0.0010312011479672164,0.02,0.0010312011479672164,0,0
1783053530.2776825,2026-07-03T13:38:50.277,0.00341796875,0.03515625,1.04345703125,0.0,0.0,0.0,1.99951171875,-0.3021240234375,-103.2879638671875,1.0440547018664788,0.0,1.0435135807749312,0.0005411210915475806,0.0009331851366832894,0.02,0.0009331851366832894,0,0
1783053530.328017,2026-07-03T13:38:50.328,0.0048828125,0.03369140625,1.04296875,0.0,0.0,0.0,1.99951171875,-0.3021240234375,-103.29345703125,1.0435242048891704,0.0,1.043520092321335,4.112567835390379e-06,0.0007473706229137097,0.02,0.0007473706229137097,0,0
1783053530.328017,2026-07-03T13:38:50.328,0.00439453125,0.03369140625,1.0419921875,0.0,0.0,0.0,1.9940185546875,-0.3021240234375,-103.29345703125,1.0425459901467393,0.0,1.0435242048891704,0.0009782147424310939,0.0007935394468171866,0.02,0.0007935394468171866,0,0
1783053530.328017,2026-07-03T13:38:50.328,0.00537109375,0.03369140625,1.04248046875,0.0,0.0,0.0,1.9940185546875,-0.3021240234375,-103.2989501953125,1.0430385837678267,0.0,1.0435188928320507,0.0004803090642240271,0.0007308933702985547,0.02,0.0007308933702985547,0,0
1783053530.328017,2026-07-03T13:38:50.328,0.0048828125,0.03369140625,1.04345703125,0.0,0.0,0.0,1.9940185546875,-0.3021240234375,-103.304443359375,1.0440122263546898,0.0,1.0435135807749312,0.0004986455797586498,0.0006844438121905738,0.02,0.0006844438121905738,0,0
1783053530.328017,2026-07-03T13:38:50.328,0.00439453125,0.03125,1.04296875,0.0,0.0,0.0,1.9940185546875,-0.3021240234375,-103.304443359375,1.0434460637145888,0.0,1.0435188928320507,7.282911746187004e-05,0.000562120873244833,0.02,0.000562120873244833,0,0
1783053530.328017,2026-07-03T13:38:50.328,0.00341796875,0.03466796875,1.04345703125,0.0,0.0,0.0,1.9940185546875,-0.3021240234375,-103.3099365234375,1.0440383741188302,0.0,1.0435135807749312,0.0005247933438989882,0.0005546553673756641,0.02,0.0005546553673756641,0,0
1783053530.328017,2026-07-03T13:38:50.328,0.00634765625,0.0341796875,1.04248046875,0.0,0.0,0.0,1.9940185546875,-0.3021240234375,-103.3099365234375,1.0430599558523401,0.0,1.0435188928320507,0.0004589369797105558,0.0005355116898426424,0.02,0.0005355116898426424,0,0
1783053530.328017,2026-07-03T13:38:50.328,0.00390625,0.0341796875,1.04296875,0.0,0.0,0.0,1.9940185546875,-0.3021240234375,-103.3154296875,1.043535971255051,0.0,1.0435135807749312,2.2390480119760525e-05,0.0004328874478980661,0.02,0.0004328874478980661,0,0
1783053530.372694,2026-07-03T13:38:50.372,0.00537109375,0.0341796875,1.041015625,0.0,0.0,0.0,1.9940185546875,-0.3021240234375,-103.3154296875,1.0415904335101247,0.0,1.0435188928320507,0.0019284593219259794,0.0007320018227036488,0.02,0.0007320018227036488,0,0
1783053530.372694,2026-07-03T13:38:50.372,0.00341796875,0.03369140625,1.04345703125,0.0,0.0,0.0,1.9940185546875,-0.3021240234375,-103.3209228515625,1.044006402964341,0.0,1.0435135807749312,0.000492822189409825,0.0006841658960448842,0.02,0.0006841658960448842,0,0
1783053530.372694,2026-07-03T13:38:50.372,0.00537109375,0.03515625,1.04345703125,0.0,0.0,0.0,1.9940185546875,-0.3021240234375,-103.326416015625,1.0440629227336815,0.0,1.0435188928320507,0.000544029901630827,0.0006561386971620728,0.02,0.0006561386971620728,0,0
1783053530.372694,2026-07-03T13:38:50.372,0.00634765625,0.03369140625,1.0439453125,0.0,0.0,0.0,1.9940185546875,-0.3021240234375,-103.326416015625,1.044508123034806,0.0,1.0435242048891704,0.0009839181456354762,0.0007216945868567535,0.02,0.0007216945868567535,0,0
1783053530.372694,2026-07-03T13:38:50.372,0.005859375,0.03466796875,1.04296875,0.0,0.0,0.0,1.9940185546875,-0.3021240234375,-103.3319091796875,1.0435612170875286,0.0,1.0435254043784545,3.581270907404566e-05,0.0005845182113002119,0.02,0.0005845182113002119,0,0
1783053530.372694,2026-07-03T13:38:50.372,0.00390625,0.0341796875,1.04345703125,0.0,0.0,0.0,1.9940185546875,-0.3021240234375,-103.3319091796875,1.044023987220468,0.0,1.0435266038677387,0.0004973833527293081,0.0005670912395860312,0.02,0.0005670912395860312,0,0
1783053530.372694,2026-07-03T13:38:50.372,0.00634765625,0.03466796875,1.04248046875,0.0,0.0,0.0,1.9940185546875,-0.3021240234375,-103.33740234375,1.0430760703430688,0.0,1.043531287561395,0.0004552172183260872,0.0005447164353340425,0.02,0.0005447164353340425,0,0
1783053530.372694,2026-07-03T13:38:50.372,0.00439453125,0.03271484375,1.04345703125,0.0,0.0,0.0,1.988525390625,-0.3021240234375,-103.33740234375,1.0439789983383563,0.0,1.0435266038677387,0.00045239447061762306,0.0005262520423907586,0.02,0.0005262520423907586,0,0
1783053530.4122918,2026-07-03T13:38:50.412,0.0048828125,0.03173828125,1.04345703125,0.0,0.0,0.0,1.988525390625,-0.3021240234375,-103.3428955078125,1.043951022040631,0.0,1.043531287561395,0.0004197344792360447,0.0005049485297598158,0.02,0.0005049485297598158,0,0
1783053530.4122918,2026-07-03T13:38:50.412,0.00634765625,0.03564453125,1.0439453125,0.0,0.0,0.0,1.988525390625,-0.3021240234375,-103.348388671875,1.0445729466335145,0.0,1.043535971255051,0.0010369753784635893,0.0006113538995005706,0.02,0.0006113538995005706,0,0
1783053530.4122918,2026-07-03T13:38:50.412,0.005859375,0.0380859375,1.04345703125,0.0,0.0,0.0,1.988525390625,-0.3021240234375,-103.348388671875,1.0441683039509042,0.0,1.043535971255051,0.0006323326958532771,0.000615549658771112,0.02,0.000615549658771112,0,0
1783053530.4122918,2026-07-03T13:38:50.412,0.005859375,0.03369140625,1.04296875,0.0,0.0,0.0,1.988525390625,-0.3021240234375,-103.3538818359375,1.0435292313141284,0.0,1.043535971255051,6.739940922484422e-06,0.0004937877152013865,0.02,0.0004937877152013865,0,0
1783053530.4132996,2026-07-03T13:38:50.413,0.00341796875,0.0361328125,1.04248046875,0.0,0.0,0.0,1.988525390625,-0.3021240234375,-103.359375,1.0431120699017704,0.0,1.043535971255051,0.00042390135328052025,0.00047981044281721324,0.02,0.00047981044281721324,0,0
1783053530.4132996,2026-07-03T13:38:50.413,0.00537109375,0.03515625,1.04296875,0.0,0.0,0.0,1.988525390625,-0.3021240234375,-103.359375,1.0435749249760156,0.0,1.043535971255051,3.895372096462957e-05,0.00039163909844669654,0.02,0.00039163909844669654,0,0
1783053530.4132996,2026-07-03T13:38:50.413,0.00732421875,0.03369140625,1.04150390625,0.0,0.0,0.0,1.988525390625,-0.3021240234375,-103.3648681640625,1.042074441568072,0.0,1.043535971255051,0.0014615296869788796,0.0006056172161531332,0.02,0.0006056172161531332,0,0
1783053530.4132996,2026-07-03T13:38:50.413,0.00537109375,0.03466796875,1.04443359375,0.0,0.0,0.0,1.988525390625,-0.3021240234375,-103.3648681640625,1.0450226066735888,0.0,1.043535971255051,0.001486635418537885,0.0007818208566300836,0.02,0.0007818208566300836,0,0
1783053530.4443104,2026-07-03T13:38:50.444,0.00439453125,0.033203125,1.04345703125,0.0,0.0,0.0,1.988525390625,-0.3021240234375,-103.370361328125,1.0439944135289883,0.0,1.043535971255051,0.0004584422739373206,0.000717145140091531,0.02,0.000717145140091531,0,0
1783053530.4443104,2026-07-03T13:38:50.444,0.0048828125,0.03369140625,1.04296875,0.0,0.0,0.0,1.988525390625,-0.3021240234375,-103.370361328125,1.0435242048891704,0.0,1.043535971255051,1.1766365880516716e-05,0.0005760693852493282,0.02,0.0005760693852493282,0,0
1783053530.4443104,2026-07-03T13:38:50.444,0.00537109375,0.033203125,1.041015625,0.0,0.0,0.0,1.988525390625,-0.3021240234375,-103.3758544921875,1.0415588450260396,0.0,1.043535971255051,0.001977126229011361,0.0008562807540017348,0.02,0.0008562807540017348,0,0
1783053530.4443104,2026-07-03T13:38:50.444,0.0078125,0.0361328125,1.04248046875,0.0,0.0,0.0,1.988525390625,-0.3021240234375,-103.38134765625,1.0431357260781695,0.0,1.043535971255051,0.0004002451768814197,0.0007650736385776719,0.02,0.0007650736385776719,0,0
1783053530.4443104,2026-07-03T13:38:50.444,0.00439453125,0.0322265625,1.04345703125,0.0,0.0,0.0,1.988525390625,-0.3021240234375,-103.38134765625,1.043963811298331,0.0,1.0435326012845896,0.0004312100137413566,0.0006983009136104089,0.02,0.0006983009136104089,0,0
1783053530.4443104,2026-07-03T13:38:50.444,0.005859375,0.03515625,1.04248046875,0.0,0.0,0.0,1.988525390625,-0.3021240234375,-103.3868408203125,1.0430895560375786,0.0,1.043535971255051,0.00044641521747235124,0.0006479237743827975,0.02,0.0006479237743827975,0,0
1783053530.4443104,2026-07-03T13:38:50.444,0.00537109375,0.03369140625,1.041015625,0.0,0.0,0.0,1.988525390625,-0.3021240234375,-103.3868408203125,1.0415745249367971,0.0,1.0435326012845896,0.0019580763477924368,0.0009099542890647254,0.02,0.0009099542890647254,0,0
1783053530.4443104,2026-07-03T13:38:50.444,0.005859375,0.0341796875,1.04296875,0.0,0.0,0.0,1.9830322265625,-0.3021240234375,-103.3868408203125,1.043545110088467,0.0,1.0435292313141284,1.587877433850693e-05,0.0007311391861194817,0.02,0.0007311391861194817,0,0
1783053530.4895506,2026-07-03T13:38:50.489,0.0029296875,0.0361328125,1.04296875,0.0,0.0,0.0,1.9830322265625,-0.3021240234375,-103.392333984375,1.0435985706604674,0.0,1.0435326012845896,6.596937587777241e-05,0.0005981052240711399,0.02,0.0005981052240711399,0,0
1783053530.4895506,2026-07-03T13:38:50.489,0.00732421875,0.03369140625,1.0419921875,0.0,0.0,0.0,1.9830322265625,-0.3021240234375,-103.392333984375,1.042562455609464,0.0,1.043535971255051,0.0009735156455870086,0.0006731873083743137,0.02,0.0006731873083743137,0,0
1783053530.4895506,2026-07-03T13:38:50.489,0.00439453125,0.0361328125,1.04296875,0.0,0.0,0.0,1.9830322265625,-0.3021240234375,-103.392333984375,1.0436037109557583,0.0,1.0435326012845896,7.110967116874534e-05,0.0005527717809332001,0.02,0.0005527717809332001,0,0
1783053530.4895506,2026-07-03T13:38:50.489,0.00439453125,0.0341796875,1.04150390625,0.0,0.0,0.0,1.9830322265625,-0.3021240234375,-103.3978271484375,1.042073869587235,0.0,1.043535971255051,0.0014621016678160181,0.0007346377583097637,0.02,0.0007346377583097637,0,0
1783053530.4895506,2026-07-03T13:38:50.489,0.00439453125,0.033203125,1.04541015625,0.0,0.0,0.0,1.9830322265625,-0.3021240234375,-103.3978271484375,1.0459465350606225,0.0,1.0435326012845896,0.0024139337760329393,0.0010704969618543989,0.02,0.0010704969618543989,0,0
1783053530.4895506,2026-07-03T13:38:50.489,0.00390625,0.03271484375,1.0419921875,0.0,0.0,0.0,1.9830322265625,-0.3021240234375,-103.4033203125,1.0425129440931102,0.0,1.043535971255051,0.0010230271619406928,0.0010610030018716576,0.02,0.0010610030018716576,0,0
1783053530.4895506,2026-07-03T13:38:50.489,0.00439453125,0.0322265625,1.041015625,0.0,0.0,0.0,1.9830322265625,-0.3021240234375,-103.4033203125,1.0415235929779096,0.0,1.0435326012845896,0.002009008306679938,0.0012506040628333139,0.02,0.0012506040628333139,0,0
1783053530.4895506,2026-07-03T13:38:50.489,0.00439453125,0.03466796875,1.0439453125,0.0,0.0,0.0,1.9830322265625,-0.3021240234375,-103.4088134765625,1.044530035687285,0.0,1.0435292313141284,0.0010008043731566385,0.0012006441248979787,0.02,0.0012006441248979787,0,0
1783053530.5355392,2026-07-03T13:38:50.535,0.0068359375,0.0341796875,1.044921875,0.0,0.0,0.0,1.9830322265625,-0.3021240234375,-103.414306640625,1.04550308748115,0.0,1.0435326012845896,0.0019704861965603726,0.0013546125392304574,0.02,0.0013546125392304574,0,0
1783053530.5355392,2026-07-03T13:38:50.535,0.0048828125,0.03466796875,1.0419921875,0.0,0.0,0.0,1.9830322265625,-0.3021240234375,-103.414306640625,1.0425801785599975,0.0,1.043535971255051,0.0009557926950534146,0.001274848570395049,0.02,0.001274848570395049,0,0
1783053530.5355392,2026-07-03T13:38:50.535,0.00439453125,0.0341796875,1.04248046875,0.0,0.0,0.0,1.9830322265625,-0.3021240234375,-103.4197998046875,1.0430498984553542,0.0,1.0435326012845896,0.0004827028292353486,0.001116419422163109,0.02,0.001116419422163109,0,0
1783053530.5355392,2026-07-03T13:38:50.535,0.00537109375,0.03515625,1.04345703125,0.0,0.0,0.0,1.9830322265625,-0.3021240234375,-103.4197998046875,1.0440629227336815,0.0,1.0435292313141284,0.0005336914195530618,0.0009998738216410994,0.02,0.0009998738216410994,0,0
1783053530.5355392,2026-07-03T13:38:50.535,0.00537109375,0.03466796875,1.04248046875,0.0,0.0,0.0,1.9830322265625,-0.3021240234375,-103.4197998046875,1.0430705845869406,0.0,1.0435326012845896,0.00046201669764900366,0.0008923023968426803,0.02,0.0008923023968426803,0,0
1783053530.5355392,2026-07-03T13:38:50.535,0.0048828125,0.0341796875,1.04296875,0.0,0.0,0.0,1.9830322265625,-0.3021240234375,-103.42529296875,1.0435400837399924,0.0,1.0435292313141284,1.0852425863960846e-05,0.0007160124026469364,0.02,0.0007160124026469364,0,0
1783053530.536541,2026-07-03T13:38:50.536,0.005859375,0.0341796875,1.04541015625,0.0,0.0,0.0,1.9830322265625,-0.3021240234375,-103.42529296875,1.0459851710725339,0.0,1.0435326012845896,0.002452569787944281,0.0010633238797064055,0.02,0.0010633238797064055,0,0
1783053530.536541,2026-07-03T13:38:50.536,0.00537109375,0.0341796875,1.04443359375,0.0,0.0,0.0,1.9830322265625,-0.3021240234375,-103.4307861328125,1.0450065221993636,0.0,1.043535971255051,0.0014705509443126985,0.0011447692926276642,0.02,0.0011447692926276642,0,0
1783053530.574625,2026-07-03T13:38:50.574,0.00390625,0.03466796875,1.04296875,0.0,0.0,0.0,1.9830322265625,-0.3021240234375,-103.4307861328125,1.0435520783951686,0.0,1.043535971255051,1.610714011768266e-05,0.0009190368621256679,0.02,0.0009190368621256679,0,0
1783053530.574625,2026-07-03T13:38:50.574,0.00537109375,0.033203125,1.0400390625,0.0,0.0,0.0,1.9775390625,-0.3021240234375,-103.4307861328125,1.0405827923253947,0.0,1.043535971255051,0.002953178929656186,0.0013258652756317716,0.02,0.0013258652756317716,0,0
1783053530.574625,2026-07-03T13:38:50.574,0.005859375,0.03271484375,1.0419921875,0.0,0.0,0.0,1.9775390625,-0.3021240234375,-103.436279296875,1.0425220918944658,0.0,1.043535971255051,0.0010138793605851681,0.001263468092622451,0.02,0.001263468092622451,0,0
1783053530.574625,2026-07-03T13:38:50.574,0.0048828125,0.03173828125,1.04345703125,0.0,0.0,0.0,1.9775390625,-0.3021240234375,-103.436279296875,1.043951022040631,0.0,1.043535971255051,0.00041505078558001784,0.0010937846312139643,0.02,0.0010937846312139643,0,0
1783053530.574625,2026-07-03T13:38:50.574,0.00439453125,0.03271484375,1.0400390625,0.0,0.0,0.0,1.9775390625,-0.3021240234375,-103.436279296875,1.0405627441112684,0.0,1.043535971255051,0.002973227143782564,0.0014696731337276844,0.02,0.0014696731337276844,0,0
1783053530.574625,2026-07-03T13:38:50.574,0.00341796875,0.0341796875,1.04248046875,0.0,0.0,0.0,1.9775390625,-0.3021240234375,-103.4417724609375,1.0430462411960428,0.0,1.043535971255051,0.0004897300590080977,0.0012736845187837672,0.02,0.0012736845187837672,0,0
1783053530.574625,2026-07-03T13:38:50.574,0.00390625,0.03466796875,1.04345703125,0.0,0.0,0.0,1.9775390625,-0.3021240234375,-103.4417724609375,1.0440400868316202,0.0,1.0435326012845896,0.0005074855470306172,0.0011204447244331371,0.02,0.0011204447244331371,0,0
1783053530.574625,2026-07-03T13:38:50.574,0.00537109375,0.03369140625,1.04296875,0.0,0.0,0.0,1.9775390625,-0.3021240234375,-103.4417724609375,1.0435266038677387,0.0,1.043535971255051,9.36738731227571e-06,0.0008982292570089648,0.02,0.0008982292570089648,0,0
1783053530.6102004,2026-07-03T13:38:50.610,0.005859375,0.03271484375,1.04296875,0.0,0.0,0.0,1.9775390625,-0.3021240234375,-103.447265625,1.0434981584811447,0.0,1.0435326012845896,3.444280344488959e-05,0.0007254719662961499,0.02,0.0007254719662961499,0,0
1783053530.6102004,2026-07-03T13:38:50.610,0.00537109375,0.0322265625,1.04345703125,0.0,0.0,0.0,1.9775390625,-0.3021240234375,-103.447265625,1.0439683788523966,0.0,1.0435292313141284,0.00043914753826812536,0.0006682070806905449,0.02,0.0006682070806905449,0,0
1783053530.6102004,2026-07-03T13:38:50.610,0.00390625,0.0361328125,1.0439453125,0.0,0.0,0.0,1.9775390625,-0.3021240234375,-103.447265625,1.0445777397680582,0.0,1.0435326012845896,0.001045138483468655,0.000743593361246167,0.02,0.000743593361246167,0,0
1783053530.6102004,2026-07-03T13:38:50.610,0.0048828125,0.0341796875,1.0439453125,0.0,0.0,0.0,1.9775390625,-0.3021240234375,-103.447265625,1.0445161120759365,0.0,1.043535971255051,0.0009801408208856,0.0007909028531740537,0.02,0.0007909028531740537,0,0
1783053530.6102004,2026-07-03T13:38:50.610,0.00634765625,0.03271484375,1.04345703125,0.0,0.0,0.0,1.9775390625,-0.296630859375,-103.4527587890625,1.0439890467847441,0.0,1.043535971255051,0.0004530755296932032,0.0007233373884778835,0.02,0.0007233373884778835,0,0
1783053530.6102004,2026-07-03T13:38:50.610,0.00732421875,0.03515625,1.04345703125,0.0,0.0,0.0,1.9775390625,-0.296630859375,-103.4527587890625,1.044074797205365,0.0,1.043535971255051,0.0005388259503140702,0.0006864351008451209,0.02,0.0006864351008451209,0,0
1783053530.6102004,2026-07-03T13:38:50.610,0.00537109375,0.033203125,1.0419921875,0.0,0.0,0.0,1.9775390625,-0.296630859375,-103.458251953125,1.0425348986815128,0.0,1.0435369422594496,0.001002043577936762,0.0007495567962634491,0.02,0.0007495567962634491,0,0
1783053530.6102004,2026-07-03T13:38:50.610,0.00439453125,0.0341796875,1.04296875,0.0,0.0,0.0,1.9775390625,-0.296630859375,-103.458251953125,1.0435379132638485,0.0,1.043535971255051,1.9420087975507982e-06,0.0006000338387702695,0.02,0.0006000338387702695,0,0
1783053530.656368,2026-07-03T13:38:50.656,0.00634765625,0.033203125,1.04296875,0.0,0.0,0.0,1.9775390625,-0.296630859375,-103.4637451171875,1.0435164367302492,0.0,1.0435369422594496,2.050552920040971e-05,0.0004841281768562976,0.02,0.0004841281768562976,0,0
1783053530.656368,2026-07-03T13:38:50.656,0.00537109375,0.03369140625,1.04248046875,0.0,0.0,0.0,1.9775390625,-0.296630859375,-103.4637451171875,1.0430385837678267,0.0,1.043535971255051,0.0004973874872242767,0.0004867800389298934,0.02,0.0004867800389298934,0,0
1783053530.656368,2026-07-03T13:38:50.656,0.00341796875,0.03173828125,1.04296875,0.0,0.0,0.0,1.9720458984375,-0.296630859375,-103.46923828125,1.0434571454945538,0.0,1.043535971255051,7.882576049711432e-05,0.0004051891832433376,0.02,0.0004051891832433376,0,0
1783053530.656368,2026-07-03T13:38:50.656,0.00439453125,0.03466796875,1.0390625,0.0,0.0,0.0,1.9720458984375,-0.296630859375,-103.4747314453125,1.0396499693975891,0.0,1.043535971255051,0.003886001857461796,0.0011013517180870293,0.02,0.0011013517180870293,0,0
1783053530.656368,2026-07-03T13:38:50.656,0.005859375,0.03369140625,1.04052734375,0.0,0.0,0.0,1.9720458984375,-0.296630859375,-103.4747314453125,1.0410891394217519,0.0,1.0435326012845896,0.002443461862837726,0.0013697737470371686,0.02,0.0013697737470371686,0,0
1783053530.656368,2026-07-03T13:38:50.656,0.005859375,0.03369140625,1.04443359375,0.0,0.0,0.0,1.9720458984375,-0.296630859375,-103.480224609375,1.0449932893966511,0.0,1.0435292313141284,0.0014640580825227012,0.0013886306141342752,0.02,0.0013886306141342752,0,0
1783053530.656368,2026-07-03T13:38:50.656,0.00537109375,0.0361328125,1.044921875,0.0,0.0,0.0,1.9720458984375,-0.296630859375,-103.480224609375,1.0455602104330228,0.0,1.0435326012845896,0.0020276091484332515,0.0015164263209940705,0.02,0.0015164263209940705,0,0
1783053530.656368,2026-07-03T13:38:50.656,0.00439453125,0.033203125,1.04248046875,0.0,0.0,0.0,1.9720458984375,-0.296630859375,-103.4857177734375,1.0430183541721079,0.0,1.043535971255051,0.0005176170829430671,0.0013166644733838698,0.02,0.0013166644733838698,0,0
1783053530.6828778,2026-07-03T13:38:50.682,0.00390625,0.03369140625,1.04345703125,0.0,0.0,0.0,1.9720458984375,-0.296630859375,-103.4857177734375,1.0440081157295802,0.0,1.0435326012845896,0.00047551444499061013,0.001148434467705218,0.02,0.001148434467705218,0,0
1783053530.6828778,2026-07-03T13:38:50.682,0.00537109375,0.03369140625,1.04541015625,0.0,0.0,0.0,1.9720458984375,-0.296630859375,-103.4912109375,1.045966708023646,0.0,1.043535971255051,0.0024307367685951764,0.0014048949278832098,0.02,0.0014048949278832098,0,0
1783053530.6828778,2026-07-03T13:38:50.682,0.0078125,0.03564453125,1.04345703125,0.0,0.0,0.0,1.9720458984375,-0.296630859375,-103.4912109375,1.0440948921574829,0.0,1.043535971255051,0.0005589209024319253,0.001235700122792953,0.02,0.001235700122792953,0,0
1783053530.6828778,2026-07-03T13:38:50.682,0.0068359375,0.0361328125,1.041015625,0.0,0.0,0.0,1.9720458984375,-0.296630859375,-103.4967041015625,1.041664937335804,0.0,1.043535971255051,0.0018710339192469227,0.0013627668820837473,0.02,0.0013627668820837473,0,0
1783053530.6828778,2026-07-03T13:38:50.682,0.0048828125,0.033203125,1.04248046875,0.0,0.0,0.0,1.9720458984375,-0.296630859375,-103.4967041015625,1.0430205257294296,0.0,1.043535971255051,0.0005154455256213275,0.0011933026107912633,0.02,0.0011933026107912633,0,0
1783053530.6828778,2026-07-03T13:38:50.682,0.0048828125,0.03369140625,1.0458984375,0.0,0.0,0.0,1.9720458984375,-0.296630859375,-103.4967041015625,1.0464523373178323,0.0,1.043535971255051,0.0029163660627813393,0.0015379153011892785,0.02,0.0015379153011892785,0,0
1783053530.6828778,2026-07-03T13:38:50.682,0.00537109375,0.0322265625,1.041015625,0.0,0.0,0.0,1.9720458984375,-0.296630859375,-103.502197265625,1.0415281712333941,0.0,1.043535971255051,0.0020078000216567915,0.0016318922452827813,0.02,0.0016318922452827813,0,0
1783053530.6828778,2026-07-03T13:38:50.682,0.00634765625,0.0322265625,1.0400390625,0.0,0.0,0.0,1.9720458984375,-0.296630859375,-103.502197265625,1.0405575887937744,0.0,1.043535971255051,0.002978382461276574,0.00190119028848154,0.02,0.00190119028848154,0,0
1783053530.7308004,2026-07-03T13:38:50.730,0.00537109375,0.03369140625,1.04541015625,0.0,0.0,0.0,1.9720458984375,-0.296630859375,-103.502197265625,1.045966708023646,0.0,1.0435326012845896,0.0024341067390565296,0.002007773578596538,0.02,0.002007773578596538,0,0
1783053530.7308004,2026-07-03T13:38:50.730,0.00439453125,0.03125,1.04248046875,0.0,0.0,0.0,1.9720458984375,-0.296630859375,-103.5076904296875,1.0429580059283916,0.0,1.043535971255051,0.0005779653266593243,0.0017218119282090953,0.02,0.0017218119282090953,0,0
1783053530.7308004,2026-07-03T13:38:50.730,0.0048828125,0.0322265625,1.0439453125,0.0,0.0,0.0,1.9720458984375,-0.296630859375,-103.5076904296875,1.044454024205565,0.0,1.0435326012845896,0.0009214229209755231,0.001561734126762381,0.02,0.001561734126762381,0,0
1783053530.7308004,2026-07-03T13:38:50.730,0.00537109375,0.0341796875,1.0419921875,0.0,0.0,0.0,1.966552734375,-0.296630859375,-103.5076904296875,1.0425664575923705,0.0,1.043535971255051,0.000969513662680388,0.0014432900339459826,0.02,0.0014432900339459826,0,0
1783053530.7308004,2026-07-03T13:38:50.730,0.00439453125,0.03125,1.04296875,0.0,0.0,0.0,1.966552734375,-0.296630859375,-103.51318359375,1.0434460637145888,0.0,1.0435326012845896,8.653757000076645e-05,0.0011719395411569395,0.02,0.0011719395411569395,0,0
1783053530.7308004,2026-07-03T13:38:50.730,0.0009765625,0.0283203125,1.0390625,0.0,0.0,0.0,1.966552734375,-0.296630859375,-103.51318359375,1.0394488311988541,0.0,1.0435292313141284,0.00408040011527433,0.0017536316559804176,0.02,0.0017536316559804176,0,0
1783053530.7308004,2026-07-03T13:38:50.730,0.00439453125,0.03466796875,1.04052734375,0.0,0.0,0.0,1.966552734375,-0.296630859375,-103.51318359375,1.0411139865805228,0.0,1.0435279175909336,0.0024139310104107636,0.001885691526866487,0.02,0.001885691526866487,0,0
1783053530.7308004,2026-07-03T13:38:50.730,0.005859375,0.03369140625,1.04345703125,0.0,0.0,0.0,1.966552734375,-0.296630859375,-103.5186767578125,1.0440172504300667,0.0,1.0435266038677387,0.000490646562328001,0.0016066825339587898,0.02,0.0016066825339587898,0,0
1783053530.7780883,2026-07-03T13:38:50.778,0.00634765625,0.037109375,1.04833984375,0.0,0.0,0.0,1.966552734375,-0.296630859375,-103.5186767578125,1.0490156464259879,0.0,1.0435279175909336,0.0054877288350543285,0.0023828917941778978,0.02,0.0023828917941778978,0,0
1783053530.7780883,2026-07-03T13:38:50.778,0.0048828125,0.037109375,1.05029296875,0.0,0.0,0.0,1.966552734375,-0.296630859375,-103.5186767578125,1.050959688939823,0.0,1.0435292313141284,0.007430457625694498,0.003392404960481218,0.02,0.003392404960481218,0,0
1783053530.7780883,2026-07-03T13:38:50.778,0.0029296875,0.03173828125,1.041015625,0.0,0.0,0.0,1.966552734375,-0.296630859375,-103.524169921875,1.0415034484146908,0.0,1.0435326012845896,0.002029152869898798,0.0031197545423647345,0.02,0.0031197545423647345,0,0
1783053530.7780883,2026-07-03T13:38:50.778,0.0078125,0.037109375,1.044921875,0.0,0.0,0.0,1.966552734375,-0.296630859375,-103.524169921875,1.0456098056744956,0.0,1.0435292313141284,0.0020805743603671267,0.0029119185059652128,0.02,0.0029119185059652128,0,0
1783053530.7780883,2026-07-03T13:38:50.778,0.00439453125,0.03271484375,1.046875,0.0,0.0,0.0,1.966552734375,-0.296630859375,-103.524169921875,1.0473952637526551,0.0,1.0435326012845896,0.0038626624680655475,0.0031020672983852796,0.02,0.0031020672983852796,0,0
1783053530.7780883,2026-07-03T13:38:50.778,0.0048828125,0.0341796875,1.0439453125,0.0,0.0,0.0,1.966552734375,-0.296630859375,-103.5296630859375,1.0445161120759365,0.0,1.043535971255051,0.0009801408208856,0.0026776820028853437,0.02,0.0026776820028853437,0,0
1783053530.7780883,2026-07-03T13:38:50.778,0.0048828125,0.03515625,1.044921875,0.0,0.0,0.0,1.966552734375,-0.296630859375,-103.5296630859375,1.0455245232061696,0.0,1.043535971255051,0.001988551951118689,0.002539855992532013,0.02,0.002539855992532013,0,0
1783053530.7780883,2026-07-03T13:38:50.778,0.00244140625,0.02880859375,1.0400390625,0.0,0.0,0.0,1.966552734375,-0.296630859375,-103.5296630859375,1.0404408426547898,0.0,1.043535971255051,0.0030951286002611766,0.0026509105140778456,0.02,0.0026509105140778456,0,0
1783053530.8059983,2026-07-03T13:38:50.805,0.00390625,0.03076171875,1.04150390625,0.0,0.0,0.0,1.966552734375,-0.296630859375,-103.53515625,1.0419654163471672,0.0,1.043535971255051,0.0015705549078837144,0.0024348393928390194,0.02,0.0024348393928390194,0,0
1783053530.8059983,2026-07-03T13:38:50.805,0.001953125,0.029296875,1.046875,0.0,0.0,0.0,1.966552734375,-0.296630859375,-103.53515625,1.047286678616238,0.0,1.043535971255051,0.0037507073611871,0.0026980129865086357,0.02,0.0026980129865086357,0,0
1783053530.8059983,2026-07-03T13:38:50.805,0.0009765625,0.0263671875,1.03173828125,0.0,0.0,0.0,1.9610595703125,-0.296630859375,-103.53515625,1.032075609268856,0.0,1.043535971255051,0.011460361986194822,0.004450482786445873,0.02,0.004450482786445873,0,0
1783053530.8059983,2026-07-03T13:38:50.805,0.01025390625,0.03564453125,1.01611328125,0.0,0.0,0.0,1.9610595703125,-0.296630859375,-103.5406494140625,1.01678998595288,0.0,1.043535971255051,0.026745985302170983,0.008909583289590895,0.02,0.008909583289590895,0,0
1783053530.8059983,2026-07-03T13:38:50.805,0.01025390625,0.04345703125,1.0341796875,0.0,0.0,0.0,1.9610595703125,-0.296630859375,-103.5406494140625,1.035143121600122,0.0,1.0435326012845896,0.008389479684467682,0.008805562568566253,0.02,0.008805562568566253,0,0
1783053530.8059983,2026-07-03T13:38:50.805,0.02734375,0.06201171875,1.07470703125,0.0,0.0,0.0,1.9610595703125,-0.296630859375,-103.5406494140625,1.0768418346928115,0.0,1.0435292313141284,0.033312603378683026,0.013706970730589609,0.02,0.013706970730589609,0,0
1783053530.8059983,2026-07-03T13:38:50.805,0.00732421875,0.03662109375,1.10693359375,-0.54931640625,0.42724609375,0.0,1.9610595703125,-0.296630859375,-103.546142578125,1.107563420152559,0.6959078522333606,1.0435326012845896,0.06403081886796946,0.02377174035806558,0.02,0.031315221074196736,1,0
1783053530.8059983,2026-07-03T13:38:50.805,-0.01611328125,0.0068359375,1.07470703125,-0.79345703125,-0.06103515625,0.0,1.95556640625,-0.296630859375,-103.546142578125,1.0748495573299242,0.795801074853839,1.043535971255051,0.03131358607487322,0.02528010950142711,0.02,0.03584032850428133,1,0
1783053530.8499277,2026-07-03T13:38:50.849,0.0,0.03076171875,1.0322265625,-1.220703125,-0.3662109375,0.0,1.9500732421875,-0.296630859375,-103.546142578125,1.032684830754776,1.2744514781384948,1.043535971255051,0.010851140500274914,0.02239431570119667,0.02,0.027182947103590014,1,0
1783053530.8499277,2026-07-03T13:38:50.849,0.02197265625,0.05078125,1.08349609375,-1.77001953125,0.0,0.0,1.9390869140625,-0.296630859375,-103.5516357421875,1.0849079768099006,1.77001953125,1.043535971255051,0.041372005554849656,0.02618985367192727,0.02,0.03856956101578181,1,0
1783053530.8499277,2026-07-03T13:38:50.849,0.01220703125,0.02685546875,1.00390625,-1.15966796875,-0.244140625,0.0,1.93359375,-0.3021240234375,-103.5516357421875,1.0043395773356656,1.1850883690763916,1.043535971255051,0.03919639391938534,0.028791161721418886,0.02,0.046373485164256656,1,0
1783053530.8499277,2026-07-03T13:38:50.849,0.01123046875,0.0263671875,0.99267578125,-0.54931640625,0.06103515625,0.0,1.93359375,-0.3021240234375,-103.5516357421875,0.9930894011544493,0.5526968468101451,1.043535971255051,0.050446570100601607,0.03312224339725543,0.02,0.059366730191766304,1,0
1783053530.8499277,2026-07-03T13:38:50.849,0.00048828125,0.01416015625,1.02392578125,0.244140625,0.18310546875,0.0,1.93359375,-0.296630859375,-103.55712890625,1.0240238053639312,0.30517578125,1.0435326012845896,0.01950879592065835,0.030399553901936018,0.02,0.05119866170580806,1,0
1783053530.8499277,2026-07-03T13:38:50.849,-0.01171875,0.01611328125,1.03271484375,0.3662109375,0.30517578125,0.0,1.93359375,-0.296630859375,-103.55712890625,1.0329070216799725,0.4766998093204745,1.0435292313141284,0.010622209634155944,0.026444085048380004,0.02,0.03933225514514001,1,0
1783053530.8499277,2026-07-03T13:38:50.849,-0.0078125,0.01904296875,1.04296875,0.06103515625,0.1220703125,0.0,1.93359375,-0.296630859375,-103.55712890625,1.0431718378539683,0.13647875839232115,1.0435279175909336,0.00035607973696527573,0.02122648398609706,0.02,0.023679451958291176,1,0
1783053530.8499277,2026-07-03T13:38:50.849,-0.00390625,0.01953125,1.04736328125,0.1220703125,0.1220703125,0.0,1.93359375,-0.296630859375,-103.55712890625,1.0475526580685057,0.17263349150062196,1.0435266038677387,0.004026054200767071,0.01778639802903106,0.02,0.01778639802903106,0,1
1783053530.8934271,2026-07-03T13:38:50.893,-0.00048828125,0.02685546875,1.037109375,0.0,0.0,0.0,1.93359375,-0.296630859375,-103.55712890625,1.0374571366245702,0.0,1.0435279175909336,0.006070780966363376,0.015443274616497525,0.02,0.015443274616497525,0,0
1783053530.8934271,2026-07-03T13:38:50.893,0.00439453125,0.0302734375,1.02685546875,0.0,-0.18310546875,0.0,1.93359375,-0.296630859375,-103.5626220703125,1.0273110272087786,0.18310546875,1.0435266038677387,0.016215576658960007,0.015597735024990022,0.02,0.015597735024990022,0,0
1783053530.8934271,2026-07-03T13:38:50.893,0.009765625,0.03759765625,1.03369140625,0.3662109375,0.06103515625,0.0,1.93359375,-0.296630859375,-103.5626220703125,1.0344210334975967,0.3712623614683972,1.0435266038677387,0.009105570370141924,0.014299302094020402,0.02,0.014299302094020402,0,0
1783053530.8934271,2026-07-03T13:38:50.893,0.00927734375,0.04541015625,1.05322265625,0.48828125,0.06103515625,0.0,1.93359375,-0.296630859375,-103.5626220703125,1.0542419622819093,0.49208116139517516,1.0435266038677387,0.010715358414170595,0.013582513358050441,0.02,0.013582513358050441,0,0
1783053530.8934271,2026-07-03T13:38:50.893,0.00830078125,0.05126953125,1.0673828125,0.18310546875,0.0,0.0,1.93359375,-0.296630859375,-103.568115234375,1.068645655128193,0.18310546875,1.0435266038677387,0.02511905126045444,0.01588982093853124,0.02,0.01588982093853124,0,0
1783053530.8934271,2026-07-03T13:38:50.893,0.0087890625,0.05029296875,1.0654296875,-0.1220703125,-0.1220703125,0.0,1.93359375,-0.296630859375,-103.568115234375,1.0666522626102966,0.17263349150062196,1.0435266038677387,0.023125658742557897,0.017336988499336573,0.02,0.017336988499336573,0,0
1783053530.8934271,2026-07-03T13:38:50.893,0.01025390625,0.04248046875,1.0458984375,-0.30517578125,-0.1220703125,0.0,1.93359375,-0.296630859375,-103.568115234375,1.0468110022270232,0.3286843754354556,1.0435279175909336,0.003283084636089617,0.014526207726687182,0.02,0.014526207726687182,0,0
1783053530.8934271,2026-07-03T13:38:50.893,0.01025390625,0.0361328125,1.03076171875,-0.18310546875,0.06103515625,0.0,1.93359375,-0.296630859375,-103.568115234375,1.0314458025378737,0.19301011109426144,1.0435292313141284,0.01208342877625479,0.014037651936600705,0.02,0.014037651936600705,0,0
1783053530.9231424,2026-07-03T13:38:50.923,0.0087890625,0.02880859375,1.02734375,0.0,0.06103515625,0.0,1.9281005859375,-0.296630859375,-103.568115234375,1.027785173738921,0.06103515625,1.0435279175909336,0.015742743852012575,0.01437867031968308,0.02,0.01437867031968308,0,0
1783053530.9231424,2026-07-03T13:38:50.923,0.00634765625,0.02734375,1.03076171875,0.18310546875,0.244140625,0.0,1.93359375,-0.296630859375,-103.5736083984375,1.0311438765974343,0.30517578125,1.0435266038677387,0.012382727270304317,0.013979481709807328,0.02,0.013979481709807328,0,0
1783053530.9231424,2026-07-03T13:38:50.923,0.0,0.025390625,1.04736328125,0.18310546875,0.42724609375,0.0,1.93359375,-0.2911376953125,-103.5736083984375,1.0476710011967771,0.46482990148095144,1.0435266038677387,0.004144397329038485,0.01201246483365356,0.02,0.01201246483365356,0,0
1783053530.9231424,2026-07-03T13:38:50.923,-0.0029296875,0.0234375,1.04833984375,0.1220703125,0.06103515625,0.0,1.93359375,-0.2911376953125,-103.5736083984375,1.0486058971171544,0.13647875839232115,1.0435266038677387,0.005079293249415695,0.010625830516805986,0.02,0.010625830516805986,0,0
1783053530.9231424,2026-07-03T13:38:50.923,-0.00341796875,0.0234375,1.041015625,-0.06103515625,0.0,0.0,1.93359375,-0.2911376953125,-103.5791015625,1.041285038023099,0.06103515625,1.0435279175909336,0.0022428795678346436,0.008949240327011717,0.02,0.008949240327011717,0,0
1783053530.9231424,2026-07-03T13:38:50.923,0.0,0.02490234375,1.0361328125,-0.06103515625,-0.06103515625,0.0,1.9281005859375,-0.2911376953125,-103.5791015625,1.0364320198948909,0.08631674575031098,1.0435266038677387,0.00709458397284779,0.008578309056178932,0.02,0.008578309056178932,0,0
1783053530.9231424,2026-07-03T13:38:50.923,0.0029296875,0.02880859375,1.03271484375,0.1220703125,0.0,0.0,1.9281005859375,-0.2911376953125,-103.5791015625,1.0331207415613566,0.1220703125,1.0435266038677387,0.010405862306382074,0.00894381970621956,0.02,0.00894381970621956,0,0
1783053530.9231424,2026-07-03T13:38:50.923,0.00439453125,0.03271484375,1.0400390625,0.06103515625,-0.1220703125,0.0,1.9281005859375,-0.2911376953125,-103.5845947265625,1.0405627441112684,0.13647875839232115,1.0435266038677387,0.0029638597564702884,0.007747827716269707,0.02,0.007747827716269707,0,0
1783053530.9674864,2026-07-03T13:38:50.967,0.0068359375,0.0390625,1.05322265625,0.18310546875,-0.1220703125,0.0,1.9281005859375,-0.2911376953125,-103.5845947265625,1.0539689618703483,0.2200653854653314,1.0435254043784545,0.01044355749189374,0.008286973671394514,0.02,0.008286973671394514,0,0
1783053530.9674864,2026-07-03T13:38:50.967,0.01123046875,0.0419921875,1.0576171875,0.0,-0.06103515625,0.0,1.9281005859375,-0.2911376953125,-103.590087890625,1.0585100767280347,0.06103515625,1.0435266038677387,0.014983472860295999,0.009626273509174811,0.02,0.009626273509174811,0,0
1783053530.9674864,2026-07-03T13:38:50.967,0.0107421875,0.04052734375,1.05126953125,-0.18310546875,0.0,0.0,1.9281005859375,-0.2911376953125,-103.590087890625,1.0521052644665887,0.18310546875,1.0435266038677387,0.00857866059885004,0.009416750927109857,0.02,0.009416750927109857,0,0
1783053530.9674864,2026-07-03T13:38:50.967,0.01318359375,0.037109375,1.041015625,-0.1220703125,0.0,0.0,1.9281005859375,-0.2911376953125,-103.5955810546875,1.0417602624170286,0.1220703125,1.0435266038677387,0.001766341450710085,0.007886669031829904,0.02,0.007886669031829904,0,0
1783053530.9674864,2026-07-03T13:38:50.967,0.01220703125,0.0322265625,1.03466796875,0.0,0.06103515625,0.0,1.9281005859375,-0.2911376953125,-103.5955810546875,1.0352416956922454,0.06103515625,1.0435266038677387,0.00828490817549321,0.007966316860562567,0.02,0.007966316860562567,0,0
1783053530.9674864,2026-07-03T13:38:50.967,0.0087890625,0.03076171875,1.0361328125,0.18310546875,0.1220703125,0.0,1.9281005859375,-0.2911376953125,-103.60107421875,1.036626613636387,0.2200653854653314,1.0435266038677387,0.0068999902313515715,0.007753051534720368,0.02,0.007753051534720368,0,0
1783053530.9674864,2026-07-03T13:38:50.967,0.00537109375,0.0341796875,1.04541015625,0.18310546875,0.3662109375,0.0,1.9281005859375,-0.2911376953125,-103.60107421875,1.0459825497953197,0.40943627517696346,1.0435254043784545,0.0024571454168651474,0.006693870311149324,0.02,0.006693870311149324,0,0
1783053530.9674864,2026-07-03T13:38:50.967,0.0009765625,0.03125,1.048828125,0.18310546875,0.18310546875,0.0,1.9281005859375,-0.2911376953125,-103.60107421875,1.0492940255073084,0.2589502372509329,1.0435266038677387,0.005767421639569781,0.006508580576833416,0.02,0.006508580576833416,0,0
1783053531.0145493,2026-07-03T13:38:51.014,-0.00244140625,0.02587890625,1.04345703125,0.1220703125,0.0,0.0,1.9281005859375,-0.2911376953125,-103.60107421875,1.0437807501186431,0.1220703125,1.0435266038677387,0.0002541462509044745,0.005257693711647628,0.02,0.005257693711647628,0,0
1783053531.0145493,2026-07-03T13:38:51.014,-0.0029296875,0.02880859375,1.0361328125,0.0,0.0,0.0,1.9281005859375,-0.2911376953125,-103.6065673828125,1.0365373718693698,0.0,1.0435266038677387,0.006989231998368872,0.005604001368991877,0.02,0.005604001368991877,0,0
1783053531.0145493,2026-07-03T13:38:51.014,0.0,0.0302734375,1.03662109375,-0.06103515625,-0.1220703125,0.0,1.9281005859375,-0.2911376953125,-103.6065673828125,1.0370630516152395,0.13647875839232115,1.0435266038677387,0.006463552252499172,0.005775911545693336,0.02,0.005775911545693336,0,0
1783053531.0145493,2026-07-03T13:38:51.014,0.00146484375,0.02978515625,1.03759765625,0.18310546875,-0.1220703125,0.0,1.9281005859375,-0.2911376953125,-103.612060546875,1.0380261063940261,0.2200653854653314,1.0435266038677387,0.005500497473712507,0.00572082873129717,0.02,0.00572082873129717,0,0
1783053531.0145493,2026-07-03T13:38:51.014,0.00390625,0.03564453125,1.04736328125,0.1220703125,-0.06103515625,0.0,1.9281005859375,-0.2911376953125,-103.612060546875,1.047976924511156,0.13647875839232115,1.0435254043784545,0.0044515201327015586,0.005466967011578049,0.02,0.005466967011578049,0,0
1783053531.0145493,2026-07-03T13:38:51.014,0.0078125,0.03515625,1.04931640625,0.1220703125,0.0,0.0,1.9281005859375,-0.2911376953125,-103.6175537109375,1.049934244367583,0.1220703125,1.0435266038677387,0.006407640499844325,0.005655101709231305,0.02,0.005655101709231305,0,0
1783053531.0145493,2026-07-03T13:38:51.014,0.009765625,0.03759765625,1.04931640625,0.0,-0.1220703125,0.0,1.9281005859375,-0.2911376953125,-103.6175537109375,1.0500351763691296,0.1220703125,1.0435266038677387,0.006508572501390919,0.0058257958676632285,0.02,0.0058257958676632285,0,0
1783053531.0145493,2026-07-03T13:38:51.014,0.0126953125,0.0361328125,1.04541015625,0.0,0.0,0.0,1.9281005859375,-0.2911376953125,-103.623046875,1.0461114404733762,0.0,1.0435266038677387,0.002584836605637575,0.005177604015258098,0.02,0.005177604015258098,0,0
1783053531.0435903,2026-07-03T13:38:51.043,0.01171875,0.03564453125,1.03955078125,0.0,0.06103515625,0.0,1.9281005859375,-0.2911376953125,-103.623046875,1.0402277099304171,0.06103515625,1.0435279175909336,0.003300207660516419,0.004802124744309763,0.02,0.004802124744309763,0,0
1783053531.0435903,2026-07-03T13:38:51.043,0.009765625,0.03466796875,1.03955078125,0.0,0.18310546875,0.0,1.9281005859375,-0.2911376953125,-103.6285400390625,1.040174534530805,0.18310546875,1.0435266038677387,0.0033520693369335497,0.004512113662834521,0.02,0.004512113662834521,0,0
1783053531.0435903,2026-07-03T13:38:51.043,0.00830078125,0.03271484375,1.04541015625,0.1220703125,0.18310546875,0.0,1.9281005859375,-0.2911376953125,-103.6285400390625,1.0459548550303672,0.2200653854653314,1.0435266038677387,0.0024282511626285697,0.004095341162793331,0.02,0.004095341162793331,0,0
1783053531.0435903,2026-07-03T13:38:51.043,0.00390625,0.03173828125,1.046875,0.0,0.1220703125,0.0,1.9281005859375,-0.2911376953125,-103.6285400390625,1.04736328125,0.1220703125,1.0435266038677387,0.0038366773822613442,0.004043608406686934,0.02,0.004043608406686934,0,0
1783053531.0435903,2026-07-03T13:38:51.043,-0.00048828125,0.029296875,1.0439453125,0.0,0.0,0.0,1.9281005859375,-0.2911376953125,-103.634033203125,1.044356433787846,0.0,1.0435279175909336,0.0008285161969123767,0.0034005899647320224,0.02,0.0034005899647320224,0,0
1783053531.0435903,2026-07-03T13:38:51.043,-0.0009765625,0.02734375,1.041015625,0.0,-0.18310546875,0.0,1.9281005859375,-0.2911376953125,-103.634033203125,1.0413751321365992,0.18310546875,1.0435292313141284,0.0021540991775292895,0.003151291807291476,0.02,0.003151291807291476,0,0
1783053531.0435903,2026-07-03T13:38:51.043,0.001953125,0.02783203125,1.03857421875,0.0,-0.06103515625,0.0,1.9281005859375,-0.2911376953125,-103.634033203125,1.038948913331613,0.06103515625,1.0435279175909336,0.004579004259320563,0.0034368342976972936,0.02,0.0034368342976972936,0,0
1783053531.0435903,2026-07-03T13:38:51.043,0.00244140625,0.02783203125,1.03564453125,0.06103515625,-0.06103515625,0.0,1.9281005859375,-0.2911376953125,-103.634033203125,1.0360213209852445,0.08631674575031098,1.0435266038677387,0.007505282882494191,0.004250524014656673,0.02,0.004250524014656673,0,0
1783053531.0909133,2026-07-03T13:38:51.090,0.005859375,0.03125,1.03857421875,0.1220703125,0.0,0.0,1.9281005859375,-0.2911376953125,-103.634033203125,1.0390607790825153,0.1220703125,1.0435266038677387,0.0044658247852233934,0.0042935841687700175,0.02,0.0042935841687700175,0,0
1783053531.0909133,2026-07-03T13:38:51.090,0.0048828125,0.03125,1.0439453125,0.1220703125,0.0,0.0,1.9281005859375,-0.2911376953125,-103.634033203125,1.0444243485521738,0.1220703125,1.0435266038677387,0.0008977446844351533,0.003614416271903045,0.02,0.003614416271903045,0,0
1783053531.0909133,2026-07-03T13:38:51.090,0.0078125,0.03564453125,1.044921875,0.0,0.06103515625,0.0,1.9281005859375,-0.2911376953125,-103.6395263671875,1.045558842255087,0.06103515625,1.0435266038677387,0.0020322383873483396,0.003297980694992104,0.02,0.003297980694992104,0,0
1783053531.0909133,2026-07-03T13:38:51.090,0.00927734375,0.0361328125,1.04443359375,0.1220703125,0.0,0.0,1.9281005859375,-0.2911376953125,-103.6395263671875,1.0450996033870437,0.1220703125,1.0435266038677387,0.0015729995193050073,0.0029529844598546852,0.02,0.0029529844598546852,0,0
1783053531.0909133,2026-07-03T13:38:51.090,0.0087890625,0.03759765625,1.04296875,0.0,-0.1220703125,0.0,1.9281005859375,-0.2911376953125,-103.6395263671875,1.043683210965705,0.1220703125,1.0435279175909336,0.0001552933747714924,0.002393446242838047,0.02,0.002393446242838047,0,0
1783053531.0909133,2026-07-03T13:38:51.090,0.01025390625,0.037109375,1.0439453125,0.1220703125,0.18310546875,0.0,1.9281005859375,-0.2911376953125,-103.6395263671875,1.044654997497737,0.2200653854653314,1.0435292313141284,0.0011257661836086008,0.0021399102309921578,0.02,0.0021399102309921578,0,0
1783053531.0909133,2026-07-03T13:38:51.090,0.0078125,0.0380859375,1.046875,0.06103515625,0.1220703125,0.0,1.9281005859375,-0.2911376953125,-103.6395263671875,1.0475966969289774,0.13647875839232115,1.0435326012845896,0.004064095644387811,0.0025247473136712885,0.02,0.0025247473136712885,0,0
1783053531.0909133,2026-07-03T13:38:51.090,0.00537109375,0.0361328125,1.0458984375,0.0,0.0,0.0,1.9281005859375,-0.2911376953125,-103.64501953125,1.04653617727825,0.0,1.043535971255051,0.003000206023199059,0.0026198390555768427,0.02,0.0026198390555768427,0,0
1783053531.1781268,2026-07-03T13:38:51.178,0.001953125,0.03173828125,1.04443359375,0.0,0.0,0.0,1.9281005859375,-0.2911376953125,-103.64501953125,1.0449175397836472,0.0,1.043535971255051,0.0013815685285962775,0.0023721849501807295,0.02,0.0023721849501807295,0,0
1783053531.1781268,2026-07-03T13:38:51.178,0.0029296875,0.0283203125,1.0419921875,0.0,0.06103515625,0.0,1.9281005859375,-0.2911376953125,-103.64501953125,1.0423810924896808,0.06103515625,1.043535971255051,0.0011548787653701265,0.002128723713218609,0.02,0.002128723713218609,0,0
1783053531.1781268,2026-07-03T13:38:51.178,0.001953125,0.02734375,1.037109375,-0.06103515625,0.0,0.0,1.922607421875,-0.2911376953125,-103.64501953125,1.0374716145872227,0.06103515625,1.043535971255051,0.00606435666782823,0.0029158503041405333,0.02,0.0029158503041405333,0,0
1783053531.1781268,2026-07-03T13:38:51.178,0.00146484375,0.02587890625,1.0390625,0.06103515625,-0.06103515625,0.0,1.922607421875,-0.2911376953125,-103.6505126953125,1.0393857524818002,0.08631674575031098,1.043535971255051,0.0041502187732507245,0.0031627239979625716,0.02,0.0031627239979625716,0,0
1783053531.1781268,2026-07-03T13:38:51.178,0.00341796875,0.02685546875,1.0390625,0.1220703125,0.0,0.0,1.922607421875,-0.2911376953125,-103.6505126953125,1.0394151132335956,0.1220703125,1.0435326012845896,0.004117488050993989,0.0033536768085688554,0.02,0.0033536768085688554,0,0
1783053531.1781268,2026-07-03T13:38:51.178,0.00390625,0.02978515625,1.04248046875,0.1220703125,0.0,0.0,1.922607421875,-0.2911376953125,-103.6505126953125,1.0429131996705763,0.1220703125,1.0435292313141284,0.0006160316435521729,0.002806147775565519,0.02,0.002806147775565519,0,0
1783053531.1781268,2026-07-03T13:38:51.178,0.0068359375,0.0322265625,1.0458984375,0.18310546875,0.1220703125,0.0,1.9281005859375,-0.28564453125,-103.656005859375,1.0464171362019123,0.2200653854653314,1.0435279175909336,0.0028892186109787943,0.002822761942648174,0.02,0.002822761942648174,0,0
1783053531.1781268,2026-07-03T13:38:51.178,0.0078125,0.037109375,1.04541015625,0.1220703125,0.0,0.0,1.9281005859375,-0.28564453125,-103.656005859375,1.0460977658229607,0.1220703125,1.0435292313141284,0.00256853450883221,0.0027719164558849814,0.02,0.0027719164558849814,0,0
1783053531.1822336,2026-07-03T13:38:51.182,0.00927734375,0.03515625,1.0419921875,0.06103515625,0.06103515625,0.0,1.9281005859375,-0.28564453125,-103.656005859375,1.0426263711570667,0.08631674575031098,1.0435326012845896,0.000906230127522889,0.0023987791902125633,0.02,0.0023987791902125633,0,0
1783053531.1822336,2026-07-03T13:38:51.182,0.00927734375,0.037109375,1.04296875,0.1220703125,-0.06103515625,0.0,1.9281005859375,-0.28564453125,-103.656005859375,1.0436699613845886,0.13647875839232115,1.0435292313141284,0.00014073007046011554,0.0019471693662620737,0.02,0.0019471693662620737,0,0
1783053531.1822336,2026-07-03T13:38:51.182,0.00537109375,0.03662109375,1.04638671875,0.06103515625,0.06103515625,0.0,1.9281005859375,-0.28564453125,-103.656005859375,1.0470411254253145,0.08631674575031098,1.0435326012845896,0.003508524140724889,0.002259440321154637,0.02,0.002259440321154637,0,0
1783053531.1822336,2026-07-03T13:38:51.182,0.0068359375,0.03369140625,1.0478515625,-0.06103515625,0.0,0.0,1.922607421875,-0.28564453125,-103.6614990234375,1.048415346096335,0.06103515625,1.043535971255051,0.00487937484128409,0.0027834272251805276,0.02,0.0027834272251805276,0,0
1783053531.1822336,2026-07-03T13:38:51.182,0.00390625,0.03515625,1.04443359375,0.0,0.0,0.0,1.922607421875,-0.28564453125,-103.6614990234375,1.0450324169405776,0.0,1.043535971255051,0.0014964456855266484,0.0025260309172497517,0.02,0.0025260309172497517,0,0
1783053531.1822336,2026-07-03T13:38:51.182,0.00244140625,0.029296875,1.04345703125,0.0,0.06103515625,0.0,1.922607421875,-0.28564453125,-103.6614990234375,1.0438710856299769,0.06103515625,1.043535971255051,0.00033511437492594887,0.002087847608784991,0.02,0.002087847608784991,0,0
1783053531.1822336,2026-07-03T13:38:51.182,0.00341796875,0.02880859375,1.0400390625,0.0,0.0,0.0,1.922607421875,-0.28564453125,-103.6614990234375,1.0404435924691484,0.0,1.0435369422594496,0.003093349790301181,0.002288948045088229,0.02,0.002288948045088229,0,0
1783053531.1822336,2026-07-03T13:38:51.182,0.00439453125,0.02734375,1.037109375,0.0,0.0,0.0,1.922607421875,-0.28564453125,-103.6669921875,1.0374790832984828,0.0,1.043535971255051,0.006056887956568113,0.003042536027384206,0.02,0.003042536027384206,0,0
1783053531.2404478,2026-07-03T13:38:51.240,0.001953125,0.02978515625,1.0380859375,0.1220703125,0.0,0.0,1.922607421875,-0.28564453125,-103.6669921875,1.0385149897162564,0.1220703125,1.043535971255051,0.005020981538794489,0.0034382251296662626,0.02,0.0034382251296662626,0,0
1783053531.2404478,2026-07-03T13:38:51.240,0.0048828125,0.03125,1.04052734375,0.18310546875,-0.06103515625,0.0,1.922607421875,-0.28564453125,-103.6669921875,1.0410079526350127,0.19301011109426144,1.043535971255051,0.0025280186200382637,0.003256183827740663,0.02,0.003256183827740663,0,0
1783053531.2404478,2026-07-03T13:38:51.240,0.00537109375,0.03173828125,1.0439453125,0.18310546875,0.0,0.0,1.922607421875,-0.28564453125,-103.6724853515625,1.04444146922434,0.18310546875,1.0435326012845896,0.000908867939750424,0.0027867206501426154,0.02,0.0027867206501426154,0,0
1783053531.2404478,2026-07-03T13:38:51.240,0.00732421875,0.033203125,1.04443359375,0.1220703125,0.0,0.0,1.922607421875,-0.28564453125,-103.6724853515625,1.0449869010870918,0.1220703125,1.043535971255051,0.0014509298320408703,0.0025195624865222664,0.02,0.0025195624865222664,0,0
1783053531.2404478,2026-07-03T13:38:51.240,0.0068359375,0.0361328125,1.046875,0.0,0.0,0.0,1.922607421875,-0.28564453125,-103.677978515625,1.047520680371354,0.0,1.043535971255051,0.003984709116302998,0.002812591812478413,0.02,0.002812591812478413,0,0
1783053531.2404478,2026-07-03T13:38:51.240,0.00830078125,0.03564453125,1.044921875,0.0,0.0,0.0,1.922607421875,-0.28564453125,-103.6834716796875,1.0455626047401028,0.0,1.043535971255051,0.002026633485051832,0.002655400146993097,0.02,0.002655400146993097,0,0
1783053531.2404478,2026-07-03T13:38:51.240,0.00634765625,0.03662109375,1.04541015625,0.0,0.0,0.0,1.922607421875,-0.2911376953125,-103.6834716796875,1.046070643904112,0.0,1.0435369422594496,0.0025337016446624894,0.0026310604465269757,0.02,0.0026310604465269757,0,0
1783053531.2404478,2026-07-03T13:38:51.240,0.0087890625,0.0341796875,1.04443359375,0.1220703125,0.18310546875,0.0,1.922607421875,-0.28564453125,-103.68896484375,1.0450296792009146,0.2200653854653314,1.0435379132638485,0.0014917659370661251,0.0024032015446348058,0.02,0.0024032015446348058,0,0
1783053531.300382,2026-07-03T13:38:51.300,0.00634765625,0.03369140625,1.04345703125,0.0,0.06103515625,0.0,1.922607421875,-0.28564453125,-103.68896484375,1.044020105007578,0.06103515625,1.0435379132638485,0.0004821917437294321,0.002018999584453731,0.02,0.002018999584453731,0,0
1783053531.300382,2026-07-03T13:38:51.300,0.00390625,0.03271484375,1.04296875,0.0,0.06103515625,0.0,1.922607421875,-0.28564453125,-103.68896484375,1.0434890192365285,0.06103515625,1.0435379132638485,4.889402732000114e-05,0.0016249784730269852,0.02,0.0016249784730269852,0,0
1783053531.300382,2026-07-03T13:38:51.300,0.005859375,0.02783203125,1.03955078125,-0.06103515625,0.06103515625,0.0,1.922607421875,-0.28564453125,-103.6944580078125,1.039939796832671,0.08631674575031098,1.0435379132638485,0.003598116431177578,0.002019606064657104,0.02,0.002019606064657104,0,0
1783053531.300382,2026-07-03T13:38:51.300,0.005859375,0.02783203125,1.0400390625,0.06103515625,0.0,0.0,1.922607421875,-0.28564453125,-103.6944580078125,1.0404278955145188,0.06103515625,1.0435379132638485,0.00311001774932973,0.0022376884015916296,0.02,0.0022376884015916296,0,0
1783053531.300382,2026-07-03T13:38:51.300,0.00146484375,0.0283203125,1.0390625,0.06103515625,0.0,0.0,1.922607421875,-0.28564453125,-103.6944580078125,1.0394494046241787,0.06103515625,1.0435369422594496,0.004087537635270921,0.002607658248327488,0.02,0.002607658248327488,0,0
1783053531.300382,2026-07-03T13:38:51.300,0.00537109375,0.02783203125,1.04150390625,0.1220703125,0.0,0.0,1.922607421875,-0.28564453125,-103.6944580078125,1.0418895610119054,0.1220703125,1.043535971255051,0.0016464102431454908,0.0024154086472910887,0.02,0.0024154086472910887,0,0
1783053531.300382,2026-07-03T13:38:51.300,0.0068359375,0.03173828125,1.0439453125,0.1220703125,0.06103515625,0.0,1.922607421875,-0.28564453125,-103.699951171875,1.044450029455182,0.13647875839232115,1.043535971255051,0.0009140582001310182,0.002115138557859075,0.02,0.002115138557859075,0,0
1783053531.300382,2026-07-03T13:38:51.300,0.00537109375,0.03369140625,1.04345703125,0.06103515625,0.0,0.0,1.922607421875,-0.28564453125,-103.699951171875,1.0440146242118629,0.06103515625,1.043535971255051,0.0004786529568119313,0.0017878414376496462,0.02,0.0017878414376496462,0,0
1783053531.300382,2026-07-03T13:38:51.300,0.00439453125,0.0341796875,1.04296875,0.06103515625,0.0,0.0,1.922607421875,-0.28564453125,-103.699951171875,1.0435379132638485,0.06103515625,1.0435369422594496,9.710043988864214e-07,0.0014304673509994944,0.02,0.0014304673509994944,0,0
1783053531.300382,2026-07-03T13:38:51.300,0.0068359375,0.0361328125,1.04296875,0.06103515625,0.06103515625,0.0,1.922607421875,-0.28564453125,-103.7054443359375,1.04361684715092,0.08631674575031098,1.0435379132638485,7.893388707147508e-05,0.0011601606582138907,0.02,0.0011601606582138907,0,0
1783053531.300382,2026-07-03T13:38:51.300,0.00634765625,0.03515625,1.04248046875,0.0,0.06103515625,0.0,1.922607421875,-0.28564453125,-103.7054443359375,1.0430924131538635,0.06103515625,1.0435379132638485,0.00044550010998500866,0.0010172285485681143,0.02,0.0010172285485681143,0,0
1783053531.300382,2026-07-03T13:38:51.300,0.00732421875,0.03515625,1.04833984375,0.0,-0.1220703125,0.0,1.922607421875,-0.28564453125,-103.7054443359375,1.0489547340510623,0.1220703125,1.0435379132638485,0.0054168207872138385,0.0018971469962972593,0.02,0.0018971469962972593,0,0
1783053531.300382,2026-07-03T13:38:51.300,0.00634765625,0.03369140625,1.0458984375,0.0,0.06103515625,0.0,1.922607421875,-0.28564453125,-103.7109375,1.0464601975994654,0.06103515625,1.0435379132638485,0.0029222843356169204,0.0021021744641611913,0.02,0.0021021744641611913,0,0
1783053531.300382,2026-07-03T13:38:51.300,0.00732421875,0.03271484375,1.0439453125,0.0,0.0,0.0,1.922607421875,-0.28564453125,-103.7109375,1.0444834707512645,0.0,1.0435379132638485,0.0009455574874159822,0.0018708510688121495,0.02,0.0018708510688121495,0,0
1783053531.300382,2026-07-03T13:38:51.300,0.005859375,0.03125,1.04248046875,0.0,0.0,0.0,1.922607421875,-0.28564453125,-103.7164306640625,1.0429652067545736,0.0,1.0435379132638485,0.0005727065092748784,0.0016112221569046952,0.02,0.0016112221569046952,0,0
1783053531.300382,2026-07-03T13:38:51.300,0.00244140625,0.0302734375,1.04052734375,0.06103515625,0.18310546875,0.0,1.922607421875,-0.28564453125,-103.7164306640625,1.0409705061018657,0.19301011109426144,1.0435379132638485,0.002567407161982782,0.0018024591579203129,0.02,0.0018024591579203129,0,0
1783053531.359947,2026-07-03T13:38:51.359,0.0029296875,0.029296875,1.04150390625,0.06103515625,0.06103515625,0.0,1.922607421875,-0.28564453125,-103.7164306640625,1.041919995339192,0.08631674575031098,1.0435379132638485,0.0016179179246564868,0.0017655509112675476,0.02,0.0017655509112675476,0,0
1783053531.359947,2026-07-03T13:38:51.359,0.0029296875,0.03173828125,1.0419921875,0.06103515625,0.06103515625,0.0,1.9171142578125,-0.28564453125,-103.721923828125,1.0424795539369522,0.08631674575031098,1.0435379132638485,0.001058359326896241,0.0016241125943932864,0.02,0.0016241125943932864,0,0
1783053531.359947,2026-07-03T13:38:51.359,0.00439453125,0.03076171875,1.04443359375,0.0,0.0,0.0,1.9171142578125,-0.28564453125,-103.721923828125,1.0448957493448336,0.0,1.0435369422594496,0.0013588070853840506,0.0015710514925914392,0.02,0.0015710514925914392,0,0
1783053531.359947,2026-07-03T13:38:51.359,0.00439453125,0.033203125,1.0439453125,0.06103515625,0.1220703125,0.0,1.9171142578125,-0.28564453125,-103.721923828125,1.0444824435601565,0.13647875839232115,1.0435379132638485,0.0009445302963080326,0.001445747253334758,0.02,0.001445747253334758,0,0
1783053531.359947,2026-07-03T13:38:51.359,0.0048828125,0.03369140625,1.04443359375,0.06103515625,0.0,0.0,1.9171142578125,-0.28564453125,-103.7274169921875,1.0449882700138566,0.06103515625,1.0435379132638485,0.0014503567500081527,0.001446669152669437,0.02,0.001446669152669437,0,0
1783053531.359947,2026-07-03T13:38:51.359,0.00732421875,0.033203125,1.04248046875,0.0,0.06103515625,0.0,1.9171142578125,-0.28564453125,-103.7274169921875,1.043034812178042,0.06103515625,1.0435379132638485,0.0005031010858065343,0.0012579555392968564,0.02,0.0012579555392968564,0,0
1783053531.359947,2026-07-03T13:38:51.359,0.00732421875,0.03466796875,1.04443359375,0.06103515625,0.0,0.0,1.9171142578125,-0.28564453125,-103.73291015625,1.0450344702406178,0.06103515625,1.0435379132638485,0.0014965569767693143,0.0013056758267913481,0.02,0.0013056758267913481,0,0
1783053531.359947,2026-07-03T13:38:51.359,0.00830078125,0.03662109375,1.0439453125,-0.06103515625,0.0,0.0,1.9171142578125,-0.28564453125,-103.73291015625,1.0446204205200706,0.06103515625,1.0435379132638485,0.001082507256222165,0.0012610421126775114,0.02,0.0012610421126775114,0,0
1783053531.4232981,2026-07-03T13:38:51.423,0.0078125,0.0341796875,1.0458984375,0.1220703125,0.0,0.0,1.9171142578125,-0.28564453125,-103.7384033203125,1.0464859424563662,0.1220703125,1.0435379132638485,0.002948029192517687,0.0015984395286455465,0.02,0.0015984395286455465,0,0
1783053531.4232981,2026-07-03T13:38:51.423,0.00634765625,0.03466796875,1.0439453125,0.0,0.0,0.0,1.9171142578125,-0.28564453125,-103.7384033203125,1.0445400788327088,0.0,1.0435379132638485,0.001002165568860347,0.0014791847366885068,0.02,0.0014791847366885068,0,0
1783053531.4232981,2026-07-03T13:38:51.423,0.00634765625,0.033203125,1.04248046875,0.06103515625,0.0,0.0,1.9171142578125,-0.28564453125,-103.743896484375,1.0430284118732593,0.06103515625,1.0435389985019206,0.0005105866286612137,0.0012854651150830483,0.02,0.0012854651150830483,0,0
1783053531.4232981,2026-07-03T13:38:51.423,0.00634765625,0.0302734375,1.04052734375,0.1220703125,0.06103515625,0.0,1.9171142578125,-0.28564453125,-103.743896484375,1.0409869964842813,0.13647875839232115,1.0435379132638485,0.0025509167795672028,0.0015385554479798794,0.02,0.0015385554479798794,0,0
1783053531.4232981,2026-07-03T13:38:51.423,0.00146484375,0.0302734375,1.0439453125,0.06103515625,0.0,0.0,1.9171142578125,-0.28564453125,-103.743896484375,1.044385198227168,0.06103515625,1.0435379132638485,0.0008472849633194279,0.0014003013510477892,0.02,0.0014003013510477892,0,0
1783053531.4232981,2026-07-03T13:38:51.423,0.00341796875,0.03076171875,1.04248046875,0.1220703125,0.0,0.0,1.9171142578125,-0.28564453125,-103.743896484375,1.042939832193617,0.1220703125,1.0435379132638485,0.0005980810702315154,0.0012398572948845346,0.02,0.0012398572948845346,0,0
1783053531.4232981,2026-07-03T13:38:51.423,0.00341796875,0.029296875,1.0439453125,0.1220703125,0.0,0.0,1.9171142578125,-0.28564453125,-103.7493896484375,1.0443619127897494,0.1220703125,1.0435379132638485,0.0008239995259009536,0.0011566857410878185,0.02,0.0011566857410878185,0,0
1783053531.4232981,2026-07-03T13:38:51.423,0.0029296875,0.03173828125,1.0439453125,0.0,0.0,0.0,1.9171142578125,-0.28564453125,-103.7493896484375,1.0444317675445698,0.0,1.0435379132638485,0.0008938542807213068,0.0011041194490145163,0.02,0.0011041194490145163,0,0
1783053531.4328566,2026-07-03T13:38:51.432,0.005859375,0.03076171875,1.04150390625,0.1220703125,0.06103515625,0.0,1.9171142578125,-0.28564453125,-103.7493896484375,1.0419745689554296,0.13647875839232115,1.0435389985019206,0.001564429546490942,0.0011961814685098014,0.02,0.0011961814685098014,0,0
1783053531.4328566,2026-07-03T13:38:51.432,0.0068359375,0.03271484375,1.04345703125,0.1220703125,0.06103515625,0.0,1.9171142578125,-0.28564453125,-103.7493896484375,1.0439921298114054,0.13647875839232115,1.0435379132638485,0.0004542165475569515,0.0010477884843192314,0.02,0.0010477884843192314,0,0
1783053531.4328566,2026-07-03T13:38:51.432,0.00732421875,0.03466796875,1.04443359375,0.06103515625,0.0,0.0,1.9171142578125,-0.28564453125,-103.7493896484375,1.0450344702406178,0.06103515625,1.0435389985019206,0.0014954717386972405,0.0011373251351948334,0.02,0.0011373251351948334,0,0
1783053531.4328566,2026-07-03T13:38:51.432,0.0078125,0.03369140625,1.04345703125,0.06103515625,0.0,0.0,1.9171142578125,-0.28564453125,-103.7493896484375,1.044030038876476,0.06103515625,1.0435400837399924,0.0004899551364836441,0.0010078511354525957,0.02,0.0010078511354525957,0,0
1783053531.4328566,2026-07-03T13:38:51.432,0.00732421875,0.033203125,1.04541015625,0.06103515625,0.0,0.0,1.9171142578125,-0.28564453125,-103.7493896484375,1.0459629469922502,0.06103515625,1.0435425969142296,0.002420350078020661,0.0012903509239662087,0.02,0.0012903509239662087,0,0
1783053531.4328566,2026-07-03T13:38:51.432,0.00634765625,0.03466796875,1.04296875,0.06103515625,0.06103515625,0.0,1.9171142578125,-0.28564453125,-103.7548828125,1.0435640729124789,0.08631674575031098,1.043545110088467,1.8962824011925505e-05,0.001036073303975352,0.02,0.001036073303975352,0,0
1783053531.4328566,2026-07-03T13:38:51.432,0.0068359375,0.0361328125,1.04248046875,0.06103515625,0.0,0.0,1.9171142578125,-0.28564453125,-103.7548828125,1.043128869270659,0.06103515625,1.043545110088467,0.00041624081780788913,0.0009121068067418595,0.02,0.0009121068067418595,0,0
1783053531.4328566,2026-07-03T13:38:51.432,0.00390625,0.033203125,1.04052734375,0.1220703125,0.1220703125,0.0,1.9171142578125,-0.28564453125,-103.7548828125,1.041064291669952,0.17263349150062196,1.043545110088467,0.002480818418514996,0.0012258491290964867,0.02,0.0012258491290964867,0,0
1783053531.4782867,2026-07-03T13:38:51.478,0.00341796875,0.03125,1.04150390625,0.0,0.1220703125,0.0,1.9171142578125,-0.28564453125,-103.7548828125,1.041978229976224,0.1220703125,1.0435425969142296,0.0015643669380056568,0.001293552690878321,0.02,0.001293552690878321,0,0
1783053531.4782867,2026-07-03T13:38:51.478,0.00244140625,0.0302734375,1.0419921875,0.06103515625,0.0,0.0,1.9171142578125,-0.28564453125,-103.7603759765625,1.0424347271141627,0.06103515625,1.0435400837399924,0.0011053566258296676,0.0012559134778685906,0.02,0.0012559134778685906,0,0
1783053531.4782867,2026-07-03T13:38:51.478,0.00634765625,0.03125,1.04248046875,0.0,0.06103515625,0.0,1.9171142578125,-0.28564453125,-103.7603759765625,1.042968064211502,0.06103515625,1.0435389985019206,0.0005709342904185455,0.0011189176403785816,0.02,0.0011189176403785816,0,0
1783053531.4782867,2026-07-03T13:38:51.478,0.00439453125,0.02978515625,1.04150390625,0.18310546875,0.06103515625,0.0,1.9171142578125,-0.28564453125,-103.7603759765625,1.0419389877395666,0.19301011109426144,1.0435379132638485,0.001598925524281869,0.0012149192171592392,0.02,0.0012149192171592392,0,0
1783053531.4782867,2026-07-03T13:38:51.478,0.0048828125,0.0322265625,1.0439453125,0.06103515625,0.0,0.0,1.9171142578125,-0.28564453125,-103.765869140625,1.044454024205565,0.06103515625,1.0435379132638485,0.0009161109417166191,0.0011551575620707152,0.02,0.0011551575620707152,0,0
1783053531.4782867,2026-07-03T13:38:51.478,0.0068359375,0.0322265625,1.04248046875,-0.06103515625,0.0,0.0,1.9171142578125,-0.28564453125,-103.765869140625,1.0430008672562503,0.06103515625,1.0435379132638485,0.0005370460075981853,0.0010315352511762093,0.02,0.0010315352511762093,0,0
1783053531.4782867,2026-07-03T13:38:51.478,0.0048828125,0.0341796875,1.04345703125,0.0,0.0,0.0,1.9171142578125,-0.28564453125,-103.7713623046875,1.0440280977830871,0.0,1.0435379132638485,0.0004901845192386567,0.0009232651047886988,0.02,0.0009232651047886988,0,0
1783053531.4782867,2026-07-03T13:38:51.478,0.0068359375,0.0341796875,1.04248046875,0.0,0.0,0.0,1.9171142578125,-0.28564453125,-103.7713623046875,1.0430630416251556,0.0,1.0435379132638485,0.0004748716386928642,0.000833586411569532,0.02,0.000833586411569532,0,0
1783053531.5386515,2026-07-03T13:38:51.538,0.00732421875,0.03515625,1.0439453125,0.0,0.0,0.0,1.9171142578125,-0.28564453125,-103.77685546875,1.0445627896804879,0.0,1.0435379132638485,0.0010248764166393975,0.0008718444125835052,0.02,0.0008718444125835052,0,0
1783053531.5386515,2026-07-03T13:38:51.538,0.00634765625,0.0341796875,1.04248046875,0.1220703125,0.0,0.0,1.9171142578125,-0.28564453125,-103.77685546875,1.0430599558523401,0.1220703125,1.0435379132638485,0.00047795741150835624,0.0007930670123684754,0.02,0.0007930670123684754,0,0
1783053531.5386515,2026-07-03T13:38:51.538,0.0048828125,0.033203125,1.0439453125,0.0,0.0,0.0,1.9171142578125,-0.28564453125,-103.7823486328125,1.044484612073533,0.0,1.0435379132638485,0.0009466988096844542,0.0008237933718316712,0.02,0.0008237933718316712,0,0
1783053531.5386515,2026-07-03T13:38:51.538,0.00830078125,0.0322265625,1.0419921875,0.0,0.0,0.0,1.9171142578125,-0.28564453125,-103.787841796875,1.0425234640577457,0.0,1.0435379132638485,0.0010144492061028298,0.000861924538685903,0.02,0.000861924538685903,0,0
1783053531.5386515,2026-07-03T13:38:51.538,0.00390625,0.03076171875,1.04296875,0.06103515625,0.0,0.0,1.9171142578125,-0.28564453125,-103.787841796875,1.0434296121953215,0.06103515625,1.0435379132638485,0.00010830106852699473,0.0007111998446541213,0.02,0.0007111998446541213,0,0
1783053531.5386515,2026-07-03T13:38:51.538,0.00390625,0.03173828125,1.0419921875,0.0,0.0,0.0,1.9171142578125,-0.28564453125,-103.7933349609375,1.0424827557791072,0.0,1.0435379132638485,0.001055157484741276,0.0007799913726715523,0.02,0.0007799913726715523,0,0
1783053531.5386515,2026-07-03T13:38:51.538,0.00341796875,0.0322265625,1.041015625,0.0,0.06103515625,0.0,1.9171142578125,-0.28564453125,-103.7933349609375,1.0415199303590321,0.06103515625,1.0435379132638485,0.0020179829048163622,0.0010275896791005143,0.02,0.0010275896791005143,0,0
1783053531.5386515,2026-07-03T13:38:51.538,0.00244140625,0.03173828125,1.041015625,0.06103515625,0.0,0.0,1.9171142578125,-0.28564453125,-103.7933349609375,1.0415021893665526,0.06103515625,1.0435379132638485,0.0020357238972958935,0.0012292165227395903,0.02,0.0012292165227395903,0,0
1783053531.5396595,2026-07-03T13:38:51.539,0.00341796875,0.0302734375,1.0419921875,0.0,-0.06103515625,0.0,1.9171142578125,-0.28564453125,-103.7933349609375,1.0424374716689138,0.06103515625,1.0435369422594496,0.0010994705905358337,0.001203267336298839,0.02,0.001203267336298839,0,0
1783053531.5396595,2026-07-03T13:38:51.539,0.00537109375,0.0322265625,1.0419921875,0.1220703125,0.0,0.0,1.9171142578125,-0.28564453125,-103.7933349609375,1.0425042536074722,0.1220703125,1.043535971255051,0.0010317176475787004,0.0011689573985548115,0.02,0.0011689573985548115,0,0
1783053531.5396595,2026-07-03T13:38:51.539,0.0048828125,0.03076171875,1.04248046875,0.0,0.0,0.0,1.9171142578125,-0.28564453125,-103.798828125,1.0429456615392692,0.0,1.043535971255051,0.0005903097157817783,0.0010532278620002048,0.02,0.0010532278620002048,0,0
1783053531.5396595,2026-07-03T13:38:51.539,0.00732421875,0.03466796875,1.04150390625,0.06103515625,0.0,0.0,1.9171142578125,-0.28564453125,-103.798828125,1.0421064719938926,0.06103515625,1.043535971255051,0.001429499261158318,0.0011284821418318274,0.02,0.0011284821418318274,0,0
1783053531.5396595,2026-07-03T13:38:51.539,0.0087890625,0.03515625,1.046875,0.0,0.06103515625,0.0,1.91162109375,-0.28564453125,-103.798828125,1.04750201678025,0.06103515625,1.0435326012845896,0.003969415495660433,0.0016966688125975486,0.02,0.0016966688125975486,0,0
1783053531.5396595,2026-07-03T13:38:51.539,0.00341796875,0.0341796875,1.04345703125,0.06103515625,-0.06103515625,0.0,1.91162109375,-0.28564453125,-103.798828125,1.0440222744812666,0.08631674575031098,1.043535971255051,0.00048630322621567856,0.0014545956953211747,0.02,0.0014545956953211747,0,0
1783053531.5396595,2026-07-03T13:38:51.539,0.00634765625,0.03466796875,1.04541015625,0.18310546875,0.0,0.0,1.9171142578125,-0.28564453125,-103.798828125,1.0460040896611105,0.18310546875,1.043535971255051,0.0024681184060595385,0.0016573002374688475,0.02,0.0016573002374688475,0,0
1783053531.5396595,2026-07-03T13:38:51.539,0.00390625,0.0341796875,1.04345703125,0.0,0.06103515625,0.0,1.91162109375,-0.28564453125,-103.798828125,1.044023987220468,0.06103515625,1.043535971255051,0.0004880159654170324,0.0014234433830584846,0.02,0.0014234433830584846,0,0
1783053531.5987978,2026-07-03T13:38:51.598,0.0078125,0.03076171875,1.04345703125,0.0,0.0,0.0,1.91162109375,-0.28564453125,-103.798828125,1.0439396029281425,0.0,1.0435369422594496,0.000402660668692878,0.0012192868401853633,0.02,0.0012192868401853633,0,0
1783053531.5987978,2026-07-03T13:38:51.598,0.0029296875,0.03173828125,1.0400390625,0.0,0.0,0.0,1.91162109375,-0.28564453125,-103.8043212890625,1.04052734375,0.0,1.0435379132638485,0.0030105695138484823,0.001577543374917987,0.02,0.001577543374917987,0,0
1783053531.5987978,2026-07-03T13:38:51.598,0.00390625,0.0302734375,1.0439453125,0.0,0.06103515625,0.0,1.91162109375,-0.28564453125,-103.8043212890625,1.0443914760748727,0.06103515625,1.0435369422594496,0.0008545338154231086,0.0014329414630190114,0.02,0.0014329414630190114,0,0
1783053531.5987978,2026-07-03T13:38:51.598,0.00439453125,0.03125,1.04443359375,0.0,-0.06103515625,0.0,1.91162109375,-0.28564453125,-103.8043212890625,1.0449102383259756,0.06103515625,1.0435379132638485,0.0013723250621271443,0.0014208181828406382,0.02,0.0014208181828406382,0,0
1783053531.5987978,2026-07-03T13:38:51.598,0.00537109375,0.0322265625,1.04248046875,0.0,-0.06103515625,0.0,1.91162109375,-0.28564453125,-103.8043212890625,1.042992295131588,0.06103515625,1.0435379132638485,0.0005456181322605058,0.0012457781727246116,0.02,0.0012457781727246116,0,0
1783053531.5987978,2026-07-03T13:38:51.598,0.0048828125,0.03271484375,1.0419921875,0.0,0.06103515625,0.0,1.91162109375,-0.28564453125,-103.8043212890625,1.0425170606136536,0.06103515625,1.0435379132638485,0.0010208526501949144,0.0012007930682186724,0.02,0.0012007930682186724,0,0
1783053531.5987978,2026-07-03T13:38:51.598,0.00244140625,0.03125,1.044921875,0.0,0.0,0.0,1.91162109375,-0.28564453125,-103.8043212890625,1.0453919111118055,0.0,1.0435369422594496,0.0018549688523559205,0.001331628225046122,0.02,0.001331628225046122,0,0
1783053531.5987978,2026-07-03T13:38:51.598,0.00439453125,0.033203125,1.044921875,0.1220703125,0.0,0.0,1.91162109375,-0.28564453125,-103.8043212890625,1.045458504326302,0.1220703125,1.0435379132638485,0.0019205910624535694,0.0014494207925276116,0.02,0.0014494207925276116,0,0
1783053531.6583433,2026-07-03T13:38:51.658,0.00537109375,0.03369140625,1.046875,0.06103515625,0.0,0.0,1.91162109375,-0.28564453125,-103.8043212890625,1.0474307734300028,0.06103515625,1.0435379132638485,0.0038928601661543105,0.0019381086672529513,0.02,0.0019381086672529513,0,0
1783053531.6583433,2026-07-03T13:38:51.658,0.00634765625,0.03369140625,1.04296875,0.0,0.1220703125,0.0,1.91162109375,-0.28564453125,-103.809814453125,1.0435320872266138,0.1220703125,1.0435379132638485,5.826037234646364e-06,0.0015516521412492904,0.02,0.0015516521412492904,0,0
1783053531.6583433,2026-07-03T13:38:51.658,0.005859375,0.03466796875,1.04345703125,0.1220703125,-0.1220703125,0.0,1.91162109375,-0.28564453125,-103.809814453125,1.044049221252382,0.17263349150062196,1.0435379132638485,0.0005113079885334937,0.0013435833107061312,0.02,0.0013435833107061312,0,0
1783053531.6583433,2026-07-03T13:38:51.658,0.00439453125,0.03466796875,1.04248046875,0.06103515625,0.0,0.0,1.91162109375,-0.28564453125,-103.809814453125,1.0430660131014613,0.06103515625,1.0435379132638485,0.00047190016238718435,0.0011692466810423417,0.02,0.0011692466810423417,0,0
1783053531.6583433,2026-07-03T13:38:51.658,0.0029296875,0.0341796875,1.04541015625,0.0,0.0,0.0,1.91162109375,-0.28564453125,-103.809814453125,1.0459728624094866,0.0,1.0435379132638485,0.0024349491456381323,0.0014223871739615,0.02,0.0014223871739615,0,0
1783053531.6583433,2026-07-03T13:38:51.658,0.00439453125,0.03271484375,1.04345703125,0.0,0.0,0.0,1.91162109375,-0.28564453125,-103.809814453125,1.0439789983383563,0.0,1.0435379132638485,0.00044108507450779655,0.0012261267540707593,0.02,0.0012261267540707593,0,0
1783053531.6583433,2026-07-03T13:38:51.658,0.0029296875,0.02978515625,1.04248046875,0.06103515625,0.0,0.0,1.91162109375,-0.28564453125,-103.809814453125,1.0429099991499287,0.06103515625,1.0435379132638485,0.0006279141139198252,0.0011064842260405726,0.02,0.0011064842260405726,0,0
1783053531.6583433,2026-07-03T13:38:51.658,0.0048828125,0.0302734375,1.04248046875,0.06103515625,0.0,0.0,1.91162109375,-0.28564453125,-103.809814453125,1.0429313738694395,0.06103515625,1.0435379132638485,0.0006065393944090225,0.0010064952597142625,0.02,0.0010064952597142625,0,0
1783053531.659364,2026-07-03T13:38:51.659,0.00634765625,0.0322265625,1.04296875,0.244140625,0.06103515625,0.0,1.91162109375,-0.28564453125,-103.809814453125,1.0434858204820021,0.2516543960948279,1.0435379132638485,5.209278184636901e-05,0.0008156147641406839,0.02,0.0008156147641406839,0,0
1783053531.659364,2026-07-03T13:38:51.659,0.00634765625,0.03369140625,1.04296875,0.1220703125,-0.06103515625,0.0,1.91162109375,-0.28564453125,-103.809814453125,1.0435320872266138,0.13647875839232115,1.0435379132638485,5.826037234646364e-06,0.0006536570187594764,0.02,0.0006536570187594764,0,0
1783053531.6603582,2026-07-03T13:38:51.660,0.00439453125,0.03125,1.0439453125,0.1220703125,0.0,0.0,1.91162109375,-0.28564453125,-103.8153076171875,1.0444221799136735,0.1220703125,1.0435369422594496,0.0008852376542238805,0.0006999731458523572,0.02,0.0006999731458523572,0,0
1783053531.6603582,2026-07-03T13:38:51.660,0.00537109375,0.0341796875,1.04443359375,0.1220703125,0.0,0.0,1.91162109375,-0.28564453125,-103.8153076171875,1.0450065221993636,0.1220703125,1.0435379132638485,0.0014686089355151477,0.0008537003037849154,0.02,0.0008537003037849154,0,0
1783053531.6603582,2026-07-03T13:38:51.660,0.0068359375,0.03125,1.0419921875,0.1220703125,0.0,0.0,1.91162109375,-0.28564453125,-103.8153076171875,1.0424830988330407,0.1220703125,1.0435379132638485,0.0010548144308077934,0.0008939231291894911,0.02,0.0008939231291894911,0,0
1783053531.6603582,2026-07-03T13:38:51.660,0.005859375,0.033203125,1.04345703125,0.1220703125,0.0,0.0,1.91162109375,-0.28564453125,-103.8153076171875,1.0440016072067224,0.1220703125,1.0435379132638485,0.00046369394287393284,0.0008078772919263795,0.02,0.0008078772919263795,0,0
1783053531.6603582,2026-07-03T13:38:51.660,0.00634765625,0.03466796875,1.0439453125,0.06103515625,-0.06103515625,0.0,1.91162109375,-0.28564453125,-103.8153076171875,1.0445400788327088,0.08631674575031098,1.0435379132638485,0.001002165568860347,0.000846734947313173,0.02,0.000846734947313173,0,0
1783053531.6603582,2026-07-03T13:38:51.660,0.00439453125,0.03271484375,1.044921875,0.0,0.0,0.0,1.91162109375,-0.28564453125,-103.8153076171875,1.0454431107238737,0.0,1.0435379132638485,0.0019051974600252652,0.0010584274498555916,0.02,0.0010584274498555916,0,0
1783053531.718581,2026-07-03T13:38:51.718,0.00537109375,0.033203125,1.04248046875,0.0,-0.06103515625,0.0,1.91162109375,-0.28564453125,-103.8153076171875,1.0430229258664723,0.06103515625,1.0435379132638485,0.0005149873973762098,0.0009497394393597153,0.02,0.0009497394393597153,0,0
1783053531.718581,2026-07-03T13:38:51.718,0.0048828125,0.03271484375,1.0439453125,0.0,0.0,0.0,1.91162109375,-0.28564453125,-103.8153076171875,1.04446920411768,0.0,1.0435379132638485,0.000931290853831479,0.000946049722254068,0.02,0.000946049722254068,0,0
1783053531.718581,2026-07-03T13:38:51.718,0.00634765625,0.033203125,1.04296875,0.0,0.06103515625,0.0,1.91162109375,-0.28564453125,-103.82080078125,1.0435164367302492,0.06103515625,1.0435379132638485,2.1476533599296133e-05,0.0007611350845231137,0.02,0.0007611350845231137,0,0
1783053531.718581,2026-07-03T13:38:51.718,0.0048828125,0.03076171875,1.044921875,0.0,0.0,0.0,1.91162109375,-0.28564453125,-103.82080078125,1.0453859813733297,0.0,1.0435379132638485,0.001848068109481238,0.0009785216895147387,0.02,0.0009785216895147387,0,0
1783053531.718581,2026-07-03T13:38:51.718,0.0048828125,0.02978515625,1.04248046875,0.0,0.0,0.0,1.91162109375,-0.28564453125,-103.82080078125,1.0429173146112625,0.0,1.0435379132638485,0.000620598652586013,0.0009069370821289936,0.02,0.0009069370821289936,0,0
1783053531.718581,2026-07-03T13:38:51.718,0.00537109375,0.03271484375,1.04345703125,0.0,0.0,0.0,1.91162109375,-0.28564453125,-103.8262939453125,1.0439835658259768,0.0,1.0435379132638485,0.00044565256212836246,0.0008146801781288675,0.02,0.0008146801781288675,0,0
1783053531.718581,2026-07-03T13:38:51.718,0.00537109375,0.03271484375,1.04443359375,0.0,-0.06103515625,0.0,1.91162109375,-0.28564453125,-103.8262939453125,1.0449596362554863,0.06103515625,1.0435379132638485,0.001421722991637786,0.0009360887408306512,0.02,0.0009360887408306512,0,0
1783053531.718581,2026-07-03T13:38:51.718,0.00537109375,0.03173828125,1.0439453125,0.0,-0.1220703125,0.0,1.91162109375,-0.28564453125,-103.8262939453125,1.04444146922434,0.1220703125,1.0435379132638485,0.00090355596049152,0.000929582184762825,0.02,0.000929582184762825,0,0
1783053531.7823207,2026-07-03T13:38:51.782,0.00537109375,0.0341796875,1.04541015625,0.0,-0.06103515625,0.0,1.91162109375,-0.28564453125,-103.8262939453125,1.0459825497953197,0.06103515625,1.0435389985019206,0.0024435512933991266,0.0012323760064900852,0.02,0.0012323760064900852,0,0
1783053531.7833145,2026-07-03T13:38:51.783,0.0078125,0.03369140625,1.04443359375,0.0,0.0,0.0,1.91162109375,-0.28564453125,-103.831787109375,1.0450060658986111,0.0,1.0435400837399924,0.001465982158618706,0.0012790972369158095,0.02,0.0012790972369158095,0,0
1783053531.7833145,2026-07-03T13:38:51.783,0.00634765625,0.03369140625,1.0419921875,0.06103515625,0.0,0.0,1.91162109375,-0.28564453125,-103.831787109375,1.0425560524048603,0.06103515625,1.0435425969142296,0.0009865445093693026,0.0012205866914065083,0.02,0.0012205866914065083,0,0
1783053531.7833145,2026-07-03T13:38:51.783,0.00732421875,0.0341796875,1.04296875,0.0,0.0,0.0,1.91162109375,-0.28564453125,-103.831787109375,1.0435543630757613,0.0,1.0435400837399924,1.42793357689186e-05,0.0009793252202789904,0.02,0.0009793252202789904,0,0
1783053531.7833145,2026-07-03T13:38:51.783,0.00732421875,0.03125,1.04345703125,0.06103515625,0.0,0.0,1.91162109375,-0.28564453125,-103.831787109375,1.0439505652785295,0.06103515625,1.0435425969142296,0.00040796836429990435,0.0008650538490831733,0.02,0.0008650538490831733,0,0
1783053531.7833145,2026-07-03T13:38:51.783,0.00732421875,0.03271484375,1.0439453125,0.1220703125,0.0,0.0,1.91162109375,-0.28564453125,-103.8372802734375,1.0444834707512645,0.1220703125,1.043545110088467,0.0009383606627975105,0.0008797152118260407,0.02,0.0008797152118260407,0,0
1783053531.7833145,2026-07-03T13:38:51.783,0.00732421875,0.03271484375,1.04345703125,0.1220703125,0.06103515625,0.0,1.91162109375,-0.28564453125,-103.8372802734375,1.0439954412002708,0.13647875839232115,1.043545110088467,0.00045033111180381447,0.0007938383918215955,0.02,0.0007938383918215955,0,0
1783053531.7833145,2026-07-03T13:38:51.783,0.00439453125,0.03173828125,1.04248046875,0.0,0.06103515625,0.0,1.91162109375,-0.28564453125,-103.8372802734375,1.0429727504239175,0.06103515625,1.043545110088467,0.0005723596645494933,0.0007495426463671751,0.02,0.0007495426463671751,0,0
1783053531.7833145,2026-07-03T13:38:51.783,0.00634765625,0.03271484375,1.04296875,0.06103515625,0.0,0.0,1.91162109375,-0.28564453125,-103.8427734375,1.043501014478672,0.06103515625,1.043545110088467,4.409560979490301e-05,0.0006084532390527208,0.02,0.0006084532390527208,0,0
1783053531.7833145,2026-07-03T13:38:51.783,0.00537109375,0.033203125,1.041015625,0.06103515625,0.18310546875,0.0,1.91162109375,-0.28564453125,-103.8427734375,1.0415588450260396,0.19301011109426144,1.043545110088467,0.0019862650624273837,0.0008840156037276534,0.02,0.0008840156037276534,0,0
1783053531.7833145,2026-07-03T13:38:51.783,0.001953125,0.03173828125,1.04296875,0.1220703125,0.06103515625,0.0,1.91162109375,-0.28564453125,-103.8427734375,1.0434533754176716,0.13647875839232115,1.0435425969142296,8.922149655798961e-05,0.0007250567822937207,0.02,0.0007250567822937207,0,0
1783053531.7833145,2026-07-03T13:38:51.783,0.00537109375,0.0322265625,1.04443359375,0.18310546875,0.0,0.0,1.91162109375,-0.28564453125,-103.8427734375,1.044944463467881,0.18310546875,1.0435400837399924,0.0014043797278886494,0.0008609213714127063,0.02,0.0008609213714127063,0,0
1783053531.7833145,2026-07-03T13:38:51.783,0.00537109375,0.03271484375,1.04296875,0.0,0.06103515625,0.0,1.91162109375,-0.28564453125,-103.8482666015625,1.0434955309565157,0.06103515625,1.0435425969142296,4.706595771386546e-05,0.0006981502886729381,0.02,0.0006981502886729381,0,0
1783053531.7833145,2026-07-03T13:38:51.783,0.00732421875,0.0361328125,1.0439453125,0.0,0.0,0.0,1.91162109375,-0.28564453125,-103.8482666015625,1.0445961132467327,0.0,1.0435400837399924,0.0010560295067403302,0.0007697261322864166,0.02,0.0007697261322864166,0,0
1783053531.7833145,2026-07-03T13:38:51.783,0.0068359375,0.03271484375,1.04248046875,0.0,0.0,0.0,1.91162109375,-0.28564453125,-103.8482666015625,1.0430160683174112,0.0,1.0435425969142296,0.0005265285968183431,0.000721086625192802,0.02,0.000721086625192802,0,0
1783053531.7833145,2026-07-03T13:38:51.783,0.00732421875,0.03125,1.04345703125,-0.06103515625,-0.06103515625,0.0,1.9061279296875,-0.28564453125,-103.853759765625,1.0439505652785295,0.08631674575031098,1.0435400837399924,0.00041048153853706637,0.0006589656078616549,0.02,0.0006589656078616549,0,0
1783053531.8502593,2026-07-03T13:38:51.850,0.00537109375,0.0341796875,1.04541015625,0.0,0.0,0.0,1.9061279296875,-0.28564453125,-103.853759765625,1.0459825497953197,0.0,1.0435425969142296,0.0024399528810901128,0.0010151630625073464,0.02,0.0010151630625073464,0,0
1783053531.8502593,2026-07-03T13:38:51.850,0.0068359375,0.033203125,1.04345703125,0.0,0.0,0.0,1.9061279296875,-0.28564453125,-103.853759765625,1.044007544808146,0.0,1.043545110088467,0.00046243471967910565,0.0009046173939416983,0.02,0.0009046173939416983,0,0
1783053531.8502593,2026-07-03T13:38:51.850,0.00390625,0.0341796875,1.041015625,0.0,0.06103515625,0.0,1.9061279296875,-0.28564453125,-103.853759765625,1.0415839098799486,0.06103515625,1.043545110088467,0.00196120020851831,0.0011159339568570206,0.02,0.0011159339568570206,0,0
1783053531.8502593,2026-07-03T13:38:51.850,0.00439453125,0.03125,1.04443359375,0.06103515625,0.0,0.0,1.9061279296875,-0.28564453125,-103.853759765625,1.0449102383259756,0.06103515625,1.043545110088467,0.0013651282375086726,0.001165772812987351,0.02,0.001165772812987351,0,0
1783053531.8502593,2026-07-03T13:38:51.850,0.005859375,0.03173828125,1.044921875,0.0,0.06103515625,0.0,1.9061279296875,-0.28564453125,-103.853759765625,1.0454201909402794,0.06103515625,1.043545110088467,0.0018750808518124273,0.0013076344207523663,0.02,0.0013076344207523663,0,0
1783053531.8502593,2026-07-03T13:38:51.850,0.00390625,0.03125,1.04150390625,0.0,0.0,0.0,1.9061279296875,-0.28564453125,-103.853759765625,1.0419799460752934,0.0,1.043545110088467,0.0015651640131735256,0.0013591403392365982,0.02,0.0013591403392365982,0,0
1783053531.8502593,2026-07-03T13:38:51.850,0.00439453125,0.03076171875,1.04248046875,0.0,0.0,0.0,1.9061279296875,-0.28564453125,-103.853759765625,1.0429434898260697,0.0,1.043545110088467,0.0006016202623972955,0.0012076363238687378,0.02,0.0012076363238687378,0,0
1783053531.8502593,2026-07-03T13:38:51.850,0.00537109375,0.033203125,1.04345703125,0.06103515625,0.1220703125,0.0,1.9061279296875,-0.28564453125,-103.853759765625,1.0439989809491677,0.13647875839232115,1.043545110088467,0.00045387086070070026,0.0010568832312351304,0.02,0.0010568832312351304,0,0
1783053531.8981228,2026-07-03T13:38:51.898,0.00439453125,0.03076171875,1.04296875,0.0,-0.06103515625,0.0,1.9061279296875,-0.28564453125,-103.853759765625,1.0434315544020718,0.06103515625,1.043545110088467,0.00011355568639515035,0.0008682177222671345,0.02,0.0008682177222671345,0,0
1783053531.8981228,2026-07-03T13:38:51.898,0.005859375,0.03515625,1.04443359375,0.1220703125,0.06103515625,0.0,1.9061279296875,-0.28564453125,-103.853759765625,1.0450415426876547,0.13647875839232115,1.043545110088467,0.001496432599187747,0.0009938606976512571,0.02,0.0009938606976512571,0,0
1783053531.8981228,2026-07-03T13:38:51.898,0.0068359375,0.033203125,1.04248046875,0.0,0.0,0.0,1.9061279296875,-0.28564453125,-103.853759765625,1.0430314977393969,0.0,1.043545110088467,0.0005136123490701028,0.0008978110279350263,0.02,0.0008978110279350263,0,0
1783053531.8981228,2026-07-03T13:38:51.898,0.0068359375,0.03271484375,1.044921875,0.06103515625,-0.06103515625,0.0,1.9061279296875,-0.28564453125,-103.8592529296875,1.0454562238069112,0.08631674575031098,1.043545110088467,0.0019111137184442129,0.0011004715660368636,0.02,0.0011004715660368636,0,0
1783053531.8981228,2026-07-03T13:38:51.898,0.00537109375,0.03369140625,1.04248046875,0.0,0.06103515625,0.0,1.9061279296875,-0.28564453125,-103.8592529296875,1.0430385837678267,0.06103515625,1.043545110088467,0.0005065263206402992,0.0009816825169575508,0.02,0.0009816825169575508,0,0
1783053531.8981228,2026-07-03T13:38:51.898,0.00537109375,0.03369140625,1.0419921875,0.0,0.0,0.0,1.9061279296875,-0.28564453125,-103.8592529296875,1.04255056391247,0.0,1.043545110088467,0.0009945461759970353,0.0009842552487654478,0.02,0.0009842552487654478,0,0
1783053531.8981228,2026-07-03T13:38:51.898,0.00390625,0.0341796875,1.04443359375,0.0,0.0,0.0,1.9061279296875,-0.28564453125,-103.8592529296875,1.0450000198948324,0.0,1.0435425969142296,0.0014574229806028072,0.0010788887951329196,0.02,0.0010788887951329196,0,0
1783053531.8981228,2026-07-03T13:38:51.898,0.00390625,0.03271484375,1.04443359375,0.0,0.0,0.0,1.9061279296875,-0.28564453125,-103.8592529296875,1.0449531336592035,0.0,1.043545110088467,0.0014080235707365496,0.0011447157502536458,0.02,0.0011447157502536458,0,0
1783053531.8991122,2026-07-03T13:38:51.899,0.0029296875,0.0341796875,1.0439453125,0.0,0.0,0.0,1.9061279296875,-0.28564453125,-103.8592529296875,1.0445088078121543,0.0,1.043545110088467,0.0009636977236873179,0.0011085121449403803,0.02,0.0011085121449403803,0,0
1783053531.8991122,2026-07-03T13:38:51.899,0.00390625,0.03173828125,1.04296875,0.0,0.0,0.0,1.9061279296875,-0.28564453125,-103.8592529296875,1.043458859161361,0.0,1.043545110088467,8.625092710601301e-05,0.0009040599013735069,0.02,0.0009040599013735069,0,0
1783053531.8991122,2026-07-03T13:38:51.899,0.00341796875,0.0322265625,1.0419921875,0.0,0.0,0.0,1.9061279296875,-0.28564453125,-103.8592529296875,1.0424960204489884,0.0,1.043545110088467,0.0010490896394785842,0.0009330658489945223,0.02,0.0009330658489945223,0,0
1783053531.8991122,2026-07-03T13:38:51.899,0.005859375,0.03173828125,1.04443359375,0.0,0.0,0.0,1.9061279296875,-0.28564453125,-103.8592529296875,1.0449321425459333,0.0,1.043545110088467,0.0013870324574662973,0.0010238591706888773,0.02,0.0010238591706888773,0,0
1783053531.8991122,2026-07-03T13:38:51.899,0.00390625,0.03173828125,1.044921875,0.0,0.0,0.0,1.9061279296875,-0.28564453125,-103.8592529296875,1.0454110684985511,0.0,1.043545110088467,0.0018659584100841897,0.0011922790185679398,0.02,0.0011922790185679398,0,0
1783053531.8991122,2026-07-03T13:38:51.899,0.0048828125,0.0322265625,1.04248046875,0.0,0.0,0.0,1.900634765625,-0.28564453125,-103.8592529296875,1.0429898949240575,0.0,1.043545110088467,0.0005552151644094838,0.0010648662477362486,0.02,0.0010648662477362486,0,0
1783053531.8991122,2026-07-03T13:38:51.899,0.0068359375,0.03173828125,1.04150390625,0.0,0.0,0.0,1.900634765625,-0.28564453125,-103.8592529296875,1.0420098057466718,0.0,1.043545110088467,0.0015353043417951628,0.0011589538665480316,0.02,0.0011589538665480316,0,0
1783053531.8991122,2026-07-03T13:38:51.899,0.0048828125,0.033203125,1.04638671875,0.0,0.0,0.0,1.900634765625,-0.28564453125,-103.8592529296875,1.0469247606891658,0.0,1.043545110088467,0.0033796506006988913,0.0016030932133782034,0.02,0.0016030932133782034,0,0
1783053531.9577744,2026-07-03T13:38:51.957,0.005859375,0.0322265625,1.04443359375,0.0,0.0,0.0,1.900634765625,-0.28564453125,-103.86474609375,1.044947087349162,0.0,1.043545110088467,0.0014019772606950198,0.0015628700228415668,0.02,0.0015628700228415668,0,0
1783053531.9577744,2026-07-03T13:38:51.957,0.0048828125,0.03369140625,1.0439453125,0.0,0.0,0.0,1.900634765625,-0.28564453125,-103.86474609375,1.0445002480630319,0.0,1.043545110088467,0.0009551379745649236,0.0014413236131862383,0.02,0.0014413236131862383,0,0
1783053531.9577744,2026-07-03T13:38:51.957,0.00537109375,0.03369140625,1.04296875,0.0,0.0,0.0,1.900634765625,-0.28564453125,-103.86474609375,1.0435266038677387,0.0,1.043548594241818,2.1990374079239317e-05,0.0011574569653648385,0.02,0.0011574569653648385,0,0
1783053531.9577744,2026-07-03T13:38:51.957,0.00634765625,0.0322265625,1.04296875,0.0,0.0,0.0,1.900634765625,-0.28564453125,-103.86474609375,1.0434858204820021,0.0,1.043545110088467,5.9289606464840716e-05,0.000937823493584839,0.02,0.000937823493584839,0,0
1783053531.9577744,2026-07-03T13:38:51.957,0.00390625,0.03271484375,1.04443359375,0.0,0.0,0.0,1.900634765625,-0.28564453125,-103.86474609375,1.0449531336592035,0.0,1.043545110088467,0.0014080235707365496,0.0010318635090151812,0.02,0.0010318635090151812,0,0
1783053531.9577744,2026-07-03T13:38:51.957,0.00537109375,0.0302734375,1.04443359375,0.0,0.0,0.0,1.900634765625,-0.28564453125,-103.86474609375,1.0448860518830165,0.0,1.043545110088467,0.0013409417945495772,0.0010936791661220605,0.02,0.0010936791661220605,0,0
1783053531.9577744,2026-07-03T13:38:51.957,0.0048828125,0.03271484375,1.0439453125,0.0,0.0,0.0,1.900634765625,-0.28564453125,-103.86474609375,1.04446920411768,0.0,1.043548594241818,0.0009206098758620662,0.0010590653080700617,0.02,0.0010590653080700617,0,0
1783053531.9577744,2026-07-03T13:38:51.957,0.00439453125,0.03271484375,1.04296875,0.0,0.0,0.0,1.900634765625,-0.28564453125,-103.86474609375,1.0434909613327068,0.0,1.0435520783951686,6.111706246181292e-05,0.000859475658948412,0.02,0.000859475658948412,0,0
1783053532.0178614,2026-07-03T13:38:52.017,0.001953125,0.02392578125,1.02197265625,0.0,0.0,0.0,1.900634765625,-0.28564453125,-103.86474609375,1.0222545513854997,0.0,1.043548594241818,0.021294042856318196,0.004946389098422368,0.02,0.004946389098422368,0,0
1783053532.0178614,2026-07-03T13:38:52.017,0.00439453125,0.0419921875,1.08544921875,0.54931640625,0.67138671875,0.0,1.900634765625,-0.2801513671875,-103.86474609375,1.0862700687218292,0.8674725588105405,1.043545110088467,0.04272495863336223,0.012502103005410341,0.02,0.012502103005410341,0,0
1783053532.0178614,2026-07-03T13:38:52.017,0.01220703125,0.03466796875,1.0966796875,-0.1220703125,0.06103515625,0.0,1.900634765625,-0.2801513671875,-103.86474609375,1.0972954099258263,0.13647875839232115,1.043548594241818,0.05374681568400841,0.020751045541129956,0.02,0.022253136623389867,1,0
1783053532.0178614,2026-07-03T13:38:52.017,0.001953125,0.04345703125,1.05810546875,0.06103515625,0.18310546875,0.0,1.900634765625,-0.2801513671875,-103.86474609375,1.0589992971012712,0.19301011109426144,1.0435520783951686,0.01544721870610255,0.019690280174124476,0.02,0.019690280174124476,0,1
1783053532.0178614,2026-07-03T13:38:52.017,0.00146484375,0.0283203125,1.04248046875,0.18310546875,0.0,0.0,1.900634765625,-0.2801513671875,-103.86474609375,1.0428661053042856,0.18310546875,1.043553220735465,0.0006871154311793859,0.015889647225535458,0.02,0.015889647225535458,0,0
1783053532.0178614,2026-07-03T13:38:52.017,-0.00732421875,0.01318359375,0.96728515625,0.3662109375,-0.06103515625,0.0,1.9061279296875,-0.2801513671875,-103.86474609375,0.9674027211177617,0.3712623614683972,1.0435520783951686,0.0761493572774069,0.027941589235909746,0.02,0.04382476770772924,1,0
1783053532.0178614,2026-07-03T13:38:52.017,-0.0107421875,0.03076171875,1.0869140625,0.0,0.42724609375,0.0,1.900634765625,-0.2801513671875,-103.86474609375,1.08740234375,0.42724609375,1.043548594241818,0.043853749508182105,0.03112402129036422,0.02,0.05337206387109267,1,0
1783053532.0178614,2026-07-03T13:38:52.017,-0.0029296875,0.029296875,0.9736328125,-0.1220703125,-0.42724609375,0.0,1.900634765625,-0.2801513671875,-103.8702392578125,0.9740778939747444,0.44434264460940665,1.0435520783951686,0.06947418442042419,0.03879405391637622,0.02,0.07638216174912867,1,0
1783053532.0188632,2026-07-03T13:38:52.018,0.021484375,0.05322265625,1.08544921875,0.42724609375,0.42724609375,0.0,1.9061279296875,-0.2801513671875,-103.8702392578125,1.0869656093880946,0.6042172202521768,1.043548594241818,0.043417015146276716,0.03971864616235632,0.02,0.07915593848706896,1,0
