time,ts_iso,ax,ay,az,wx,wy,wz,roll,pitch,yaw,acc_mag,gyro_mag,baseline_acc,vib,envelope,noise_level,score,score_threshold,is_above,is_peak
1783054863.1136584,2026-07-03T14:01:03.113,-0.0107421875,0.00146484375,1.03759765625,0.0,0.0,0.0,0.274658203125,0.615234375,-30.355224609375,1.0376542953291286,0.0,1.0376542953291286,0.0,0.0,0.003,0.0,4.0,0,0
1783054863.1136584,2026-07-03T14:01:03.113,-0.01318359375,0.00341796875,1.046875,0.0,0.0,0.0,0.274658203125,0.615234375,-30.355224609375,1.046963588325564,0.0,1.046963588325564,0.0,0.0,0.003,0.0,4.0,0,0
1783054863.1136584,2026-07-03T14:01:03.113,-0.009765625,0.00146484375,1.04150390625,0.0,0.0,0.0,0.274658203125,0.615234375,-30.355224609375,1.0415507188480364,0.0,1.0415507188480364,0.0,0.0,0.003,0.0,4.0,0,0
1783054863.1136584,2026-07-03T14:01:03.113,-0.0107421875,0.00390625,1.04248046875,0.0,0.0,0.0,0.274658203125,0.615234375,-30.355224609375,1.042543131532968,0.0,1.042543131532968,0.0,0.0,0.003,0.0,4.0,0,0
1783054863.1136584,2026-07-03T14:01:03.113,-0.00927734375,0.0048828125,1.04931640625,0.0,0.0,0.0,0.274658203125,0.615234375,-30.355224609375,1.049368777594598,0.0,1.049368777594598,0.0,0.0,0.003,0.0,4.0,0,0
1783054863.1136584,2026-07-03T14:01:03.113,-0.0078125,0.00244140625,1.037109375,0.0,0.0,0.0,0.274658203125,0.615234375,-30.355224609375,1.0371416737040404,0.0,1.0371416737040404,0.0,0.0,0.003,0.0,4.0,0,0
1783054863.1136584,2026-07-03T14:01:03.113,-0.00830078125,0.00341796875,1.03955078125,0.0,0.0,0.0,0.274658203125,0.615234375,-30.355224609375,1.039589540288484,0.0,1.039589540288484,0.0,0.0,0.003,0.0,4.0,0,0
1783054863.1136584,2026-07-03T14:01:03.113,-0.00830078125,0.00390625,1.04638671875,0.0,0.0,0.0,0.2691650390625,0.615234375,-30.355224609375,1.0464269333951675,0.0,1.0464269333951675,0.0,0.0,0.003,0.0,4.0,0,0
1783054863.1748006,2026-07-03T14:01:03.174,-0.01025390625,0.00439453125,1.03955078125,0.0,0.0,0.0,0.2691650390625,0.615234375,-30.355224609375,1.039610639275963,0.0,1.039610639275963,0.0,0.0,0.003,0.0,4.0,0,0
1783054863.1748006,2026-07-03T14:01:03.174,-0.00927734375,0.00146484375,1.0390625,0.0,0.0,0.0,0.2691650390625,0.615234375,-30.355224609375,1.039104948395742,0.0,1.039104948395742,0.0,0.0,0.003,0.0,4.0,0,0
1783054863.1748006,2026-07-03T14:01:03.174,-0.0107421875,0.00390625,1.05078125,0.0,0.0,0.0,0.2691650390625,0.615234375,-30.355224609375,1.0508434177996788,0.0,1.0405806790619998,0.010262738737679022,0.0025656846844197556,0.003,0.8552282281399185,4.0,0,0
1783054863.1748006,2026-07-03T14:01:03.174,-0.009765625,0.001953125,1.04052734375,0.0,0.0,0.0,0.2691650390625,0.615234375,-30.355224609375,1.0405750022080757,0.0,1.0415507188480364,0.0009757166399606554,0.0021681926733049806,0.003,0.7227308911016602,4.0,0,0
1783054863.1748006,2026-07-03T14:01:03.174,-0.00927734375,0.00390625,1.04296875,0.0,0.0,0.0,0.2691650390625,0.6097412109375,-30.355224609375,1.0430173255381143,0.0,1.041062860528056,0.0019544650100582484,0.0021147607574932975,0.003,0.7049202524977658,4.0,0,0
1783054863.1748006,2026-07-03T14:01:03.174,-0.01123046875,0.00537109375,1.0517578125,0.0,0.0,0.0,0.2691650390625,0.6097412109375,-30.355224609375,1.0518314828104363,0.0,1.0415507188480364,0.010280763962399853,0.004156261558719936,0.003,1.385420519573312,4.0,0,0
1783054863.1748006,2026-07-03T14:01:03.174,-0.01171875,0.001953125,1.03955078125,0.0,0.0,0.0,0.2691650390625,0.6097412109375,-30.355224609375,1.0396186659522393,0.0,1.0420469251905022,0.002428259238262953,0.0037242609786056905,0.003,1.2414203262018968,4.0,0,0
1783054863.1748006,2026-07-03T14:01:03.174,-0.00927734375,0.00244140625,1.041015625,0.0,0.0,0.0,0.2691650390625,0.6097412109375,-30.355224609375,1.0410598258821027,0.0,1.0415507188480364,0.0004908929659337424,0.0029159189754377037,0.003,0.9719729918125679,4.0,0,0
1783054863.2036467,2026-07-03T14:01:03.203,-0.0087890625,0.005859375,1.04443359375,0.0,0.0,0.0,0.2691650390625,0.6097412109375,-30.355224609375,1.0444870088462372,0.0,1.0413052723650695,0.0031817364811677074,0.002982373351870205,0.003,0.9941244506234016,4.0,0,0
1783054863.2036467,2026-07-03T14:01:03.203,-0.00927734375,0.00537109375,1.03759765625,0.0,0.0,0.0,0.2691650390625,0.6097412109375,-30.355224609375,1.0376530316105765,0.0,1.0415507188480364,0.003897687237459868,0.0032112018232676206,0.003,1.0704006077558734,4.0,0,0
1783054863.2036467,2026-07-03T14:01:03.203,-0.00830078125,0.005859375,1.03955078125,0.0,0.0,0.0,0.2691650390625,0.6097412109375,-30.355224609375,1.0396004338409235,0.0,1.0413052723650695,0.0017048385241460462,0.002834610998487227,0.003,0.9448703328290756,4.0,0,0
1783054863.2036467,2026-07-03T14:01:03.203,-0.0087890625,0.00390625,1.04736328125,0.0,0.0,0.0,0.2691650390625,0.6097412109375,-30.355224609375,1.0474074418866128,0.0,1.0410598258821027,0.00634761600451017,0.003712862249992963,0.003,1.2376207499976544,4.0,0,0
1783054863.2036467,2026-07-03T14:01:03.203,-0.01025390625,0.00341796875,1.04345703125,0.0,0.0,0.0,0.2691650390625,0.6097412109375,-30.355224609375,1.0435130095829295,0.0,1.0413052723650695,0.0022077372178599397,0.003336580991959707,0.003,1.112193663986569,4.0,0,0
1783054863.2036467,2026-07-03T14:01:03.203,-0.01025390625,0.00390625,1.0390625,0.0,0.0,0.0,0.2691650390625,0.6097412109375,-30.355224609375,1.0391204358921522,0.0,1.0415507188480364,0.002430282955884211,0.003110006482940833,0.005141489845391912,0.6048842993880836,4.0,0,0
1783054863.2036467,2026-07-03T14:01:03.203,-0.01220703125,0.00537109375,1.0478515625,0.0,0.0,0.0,0.2691650390625,0.6097412109375,-30.355224609375,1.0479364280783932,0.0,1.0413052723650695,0.006631155713323622,0.00399029379053653,0.004808354694067863,0.8298667724033365,4.0,0,0
1783054863.2036467,2026-07-03T14:01:03.203,-0.0107421875,0.00244140625,1.04248046875,0.0,0.0,0.0,0.2691650390625,0.6097412109375,-30.355224609375,1.0425386720798333,0.0,1.0415507188480364,0.0009879532317969009,0.0032397086508516226,0.004869639789712476,0.6652871240488423,4.0,0,0
1783054863.2306385,2026-07-03T14:01:03.230,-0.01171875,0.0009765625,1.0419921875,0.0,0.0,0.0,0.2691650390625,0.6097412109375,-30.355224609375,1.0420585403838472,0.0,1.0420446954639349,1.3844919912298081e-05,0.0024332427181167912,0.004576514843946149,0.5316802853454096,4.0,0,0
1783054863.2306385,2026-07-03T14:01:03.230,-0.01171875,0.00341796875,1.04638671875,0.0,0.0,0.0,0.2691650390625,0.6097412109375,-30.355224609375,1.0464579192630394,0.0,1.0420585403838472,0.004399378879192284,0.0029247767583856646,0.0043473063911176335,0.6727790717400399,4.0,0,0
1783054863.2306385,2026-07-03T14:01:03.230,-0.009765625,0.0009765625,1.03759765625,0.0,0.0,0.0,0.2691650390625,0.6097412109375,-30.355224609375,1.0376440706530587,0.0,1.0422986062318402,0.004654535578781482,0.0033572164634846193,0.004306898267128113,0.7794975073147591,4.0,0,0
1783054863.2306385,2026-07-03T14:01:03.230,-0.00732421875,0.00439453125,1.044921875,0.0,0.0,0.0,0.2691650390625,0.6097412109375,-30.355224609375,1.0449567842445546,0.0,1.0420585403838472,0.0028982438607074723,0.0032424733127903328,0.0042664901431385925,0.7599861253646413,4.0,0,0
1783054863.2306385,2026-07-03T14:01:03.230,-0.009765625,0.0068359375,1.04150390625,0.0,0.0,0.0,0.2691650390625,0.6097412109375,-30.355224609375,1.041572121462145,0.0,1.0422986062318402,0.0007264847696952792,0.0026134761770165694,0.003937958002015476,0.6636627855550955,4.0,0,0
1783054863.2306385,2026-07-03T14:01:03.230,-0.009765625,0.00341796875,1.03662109375,0.0,0.0,0.0,0.2691650390625,0.6097412109375,-30.355224609375,1.0366727265388354,0.0,1.0420585403838472,0.0053858138450118,0.003306560594015377,0.0037161455257341,0.8897823217948893,4.0,0,0
1783054863.2306385,2026-07-03T14:01:03.230,-0.00927734375,0.00439453125,1.04150390625,0.0,0.0,0.0,0.2691650390625,0.6097412109375,-30.355224609375,1.0415544958118954,0.0,1.041815330922996,0.0002608351111006435,0.0025451292232866935,0.003647488618271813,0.6977757820921127,4.0,0,0
1783054863.2306385,2026-07-03T14:01:03.230,-0.00732421875,0.0048828125,1.0458984375,0.0,0.0,0.0,0.2691650390625,0.6097412109375,-30.355224609375,1.045935479655963,0.0,1.041572121462145,0.0043633581938180566,0.0029996864659195344,0.0036855513756512653,0.813904395889602,4.0,0,0
1783054863.2915628,2026-07-03T14:01:03.291,-0.009765625,0.00390625,1.04052734375,0.0,0.0,0.0,0.2691650390625,0.6097412109375,-30.355224609375,1.0405805011204725,0.0,1.041815330922996,0.0012348298025235405,0.002558472300070536,0.0036297789275618474,0.7048562326050758,4.0,0,0
1783054863.2915628,2026-07-03T14:01:03.291,-0.01171875,0.00341796875,1.0400390625,0.0,0.0,0.0,0.2691650390625,0.6097412109375,-30.355224609375,1.0401106975403231,0.0,1.041572121462145,0.0014614239218218028,0.0022842102055083526,0.0036410431336590015,0.6273504931574035,4.0,0,0
1783054863.2915628,2026-07-03T14:01:03.291,-0.01318359375,0.00341796875,1.048828125,0.0,0.0,0.0,0.2691650390625,0.6097412109375,-30.355224609375,1.048916548370535,0.0,1.0415633086370202,0.00735323973351476,0.0035514675875099547,0.003605067319250487,0.9851321134963782,4.0,0,0
1783054863.2915628,2026-07-03T14:01:03.291,-0.01171875,0.0,1.03857421875,0.0,0.0,0.0,0.2691650390625,0.6097412109375,-30.355224609375,1.0386403308911778,0.0,1.041572121462145,0.002931790570967152,0.003396548333374254,0.0036410431336590015,0.9328503422481988,4.0,0,0
1783054863.2915628,2026-07-03T14:01:03.291,-0.013671875,0.0048828125,1.04296875,0.0,0.0,0.0,0.2691650390625,0.6097412109375,-30.355224609375,1.043069784578428,0.0,1.0415633086370202,0.0015064759414078477,0.0029240302353826524,0.0036297789275618474,0.8055670314188385,4.0,0,0
1783054863.2915628,2026-07-03T14:01:03.291,-0.0107421875,0.00439453125,1.0478515625,0.0,0.0,0.0,0.2691650390625,0.6097412109375,-30.355224609375,1.047915837999829,0.0,1.041572121462145,0.006343716537684063,0.003778951810958005,0.003650635214157706,1.0351491149547531,4.0,0,0
1783054863.2915628,2026-07-03T14:01:03.291,-0.01025390625,0.0029296875,1.041015625,0.0,0.0,0.0,0.2691650390625,0.6097412109375,-30.355224609375,1.041070246023952,0.0,1.041815330922996,0.0007450848990440129,0.003020485082979507,0.003699841241149458,0.816382348892654,4.0,0,0
1783054863.2915628,2026-07-03T14:01:03.291,-0.00927734375,0.0048828125,1.04931640625,0.0,0.0,0.0,0.2691650390625,0.6097412109375,-30.355224609375,1.049368777594598,0.0,1.041572121462145,0.00779665613245295,0.004214527845347868,0.003631534794541688,1.1605362701418798,4.0,0,0
1783054863.320561,2026-07-03T14:01:03.320,-0.00634765625,0.00537109375,1.04541015625,0.0,0.0,0.0,0.2691650390625,0.6097412109375,-30.355224609375,1.0454432247513916,0.0,1.041815330922996,0.0036278938283955675,0.004067869341109793,0.0037489147010913303,1.0850791936998763,4.0,0,0
1783054863.320561,2026-07-03T14:01:03.320,-0.005859375,0.00390625,1.0380859375,0.0,0.0,0.0,0.263671875,0.6097412109375,-30.355224609375,1.0381098230436445,0.0,1.0420585403838472,0.003948717340202634,0.004038081340883003,0.003854268853646591,1.047690624140686,4.0,0,0
1783054863.320561,2026-07-03T14:01:03.320,-0.00830078125,0.00634765625,1.0439453125,0.0,0.0,0.0,0.263671875,0.6097412109375,-30.355224609375,1.043997610725212,0.0,1.041815330922996,0.0021822798022159695,0.0035741309562162447,0.0038638213941619465,0.9250248889911395,4.0,0,0
1783054863.320561,2026-07-03T14:01:03.320,-0.00927734375,0.00439453125,1.04541015625,0.0,0.0,0.0,0.263671875,0.6097412109375,-30.355224609375,1.0454605567895006,0.0,1.0420585403838472,0.0034020164056534075,0.0035311023185755352,0.0038744807296815674,0.9113743401856451,4.0,0,0
1783054863.320561,2026-07-03T14:01:03.320,-0.01171875,0.00146484375,1.03857421875,0.0,0.0,0.0,0.263671875,0.6097412109375,-30.355224609375,1.0386413638599934,0.0,1.0422986062318402,0.003657242371846836,0.0035626373318933605,0.0038568108788594904,0.9237262193542866,4.0,0,0
1783054863.320561,2026-07-03T14:01:03.320,-0.01123046875,0.001953125,1.0390625,0.0,0.0,0.0,0.263671875,0.604248046875,-30.355224609375,1.0391250247356476,0.0,1.0420585403838472,0.0029335156481995472,0.003405356910969907,0.003842672728652535,0.8861948834669623,4.0,0,0
1783054863.320561,2026-07-03T14:01:03.320,-0.01220703125,0.00341796875,1.04736328125,0.0,0.0,0.0,0.263671875,0.604248046875,-30.355224609375,1.0474399920917097,0.0,1.041815330922996,0.005624661168713629,0.003960182975405837,0.0038302149427210134,1.0339323078804799,4.0,0,0
1783054863.320561,2026-07-03T14:01:03.320,-0.0126953125,0.0009765625,1.0380859375,0.0,0.0,0.0,0.263671875,0.604248046875,-30.355224609375,1.0381640228157798,0.0,1.0420585403838472,0.003894517568067357,0.003943766623571217,0.003839495966411881,1.0271573816124566,4.0,0,0
1783054863.352927,2026-07-03T14:01:03.352,-0.01416015625,0.00439453125,1.04541015625,0.0,0.0,0.0,0.263671875,0.604248046875,-30.355224609375,1.0455152876551261,0.0,1.041815330922996,0.003699956732130083,0.0038828141507109334,0.003855826225352646,1.0069992587271797,4.0,0,0
1783054863.352927,2026-07-03T14:01:03.352,-0.01171875,0.00439453125,1.046875,0.0,0.0,0.0,0.263671875,0.604248046875,-30.355224609375,1.0469498109419906,0.0,1.0420585403838472,0.0048912705581434235,0.0041349282525690555,0.0038911306131249697,1.0626547046819104,4.0,0,0
1783054863.352927,2026-07-03T14:01:03.352,-0.01025390625,0.00244140625,1.0361328125,0.0,0.0,0.0,0.263671875,0.604248046875,-30.355224609375,1.036186425406655,0.0,1.0422986062318402,0.006112180825185165,0.004629241395723083,0.004013827741939976,1.1533233843975734,4.0,0,0
1783054863.352927,2026-07-03T14:01:03.352,-0.0087890625,0.00634765625,1.0478515625,0.0,0.0,0.0,0.263671875,0.604248046875,-30.355224609375,1.0479076473588635,0.0,1.0420585403838472,0.005849106975016394,0.004934207790546411,0.004020700198213551,1.227201121023334,4.0,0,0
1783054863.352927,2026-07-03T14:01:03.352,-0.0068359375,0.0048828125,1.04150390625,0.0,0.0,0.0,0.263671875,0.604248046875,-30.355224609375,1.0415377855044063,0.0,1.0422986062318402,0.0007608207274338863,0.0038908610247682797,0.00407523683734497,0.9547570313246355,4.0,0,0
1783054863.352927,2026-07-03T14:01:03.352,-0.00732421875,0.00439453125,1.0380859375,0.0,0.0,0.0,0.263671875,0.604248046875,-30.355224609375,1.0381210766189362,0.0,1.0420585403838472,0.003937463764910998,0.003902511709803959,0.004198721059999343,0.9294524818480249,4.0,0,0
1783054863.352927,2026-07-03T14:01:03.352,-0.009765625,0.00537109375,1.04150390625,0.0,0.0,0.0,0.263671875,0.604248046875,-30.355224609375,1.041563537578827,0.0,1.041815330922996,0.00025179334416902677,0.002989832118395226,0.004213154998678059,0.7096420899144065,4.0,0,0
1783054863.352927,2026-07-03T14:01:03.352,-0.00927734375,0.00439453125,1.04541015625,0.0,0.0,0.0,0.263671875,0.604248046875,-30.355224609375,1.0454605567895006,0.0,1.041572121462145,0.0038884353273556105,0.003214482920635322,0.004198721059999343,0.7655862046324708,4.0,0,0
1783054863.4104142,2026-07-03T14:01:03.410,-0.00830078125,0.0,1.0400390625,0.0,0.0,0.0,0.263671875,0.604248046875,-30.355224609375,1.0400721871558913,0.0,1.041815330922996,0.0017431437671047156,0.0028466481322526704,0.004192902663342008,0.6789206334648638,4.0,0,0
1783054863.4104142,2026-07-03T14:01:03.410,-0.01318359375,0.00341796875,1.041015625,0.0,0.0,0.0,0.263671875,0.604248046875,-30.355224609375,1.041104711903986,0.0,1.041572121462145,0.0004674095581589377,0.002251838488729237,0.004178938614359618,0.53885416765671,4.0,0,0
1783054863.4104142,2026-07-03T14:01:03.410,-0.01318359375,0.00634765625,1.046875,0.0,0.0,0.0,0.263671875,0.604248046875,-30.355224609375,1.0469772516674052,0.0,1.041567829520486,0.005409422146919196,0.003041234403276727,0.00407523683734497,0.7462718179731859,4.0,0,0
1783054863.4104142,2026-07-03T14:01:03.410,-0.01220703125,0.0009765625,1.03857421875,0.0,0.0,0.0,0.263671875,0.604248046875,-30.355224609375,1.0386464139149703,0.0,1.041572121462145,0.002925707547174694,0.003012352689251219,0.004020700198213551,0.7492109684252624,4.0,0,0
1783054863.4104142,2026-07-03T14:01:03.410,-0.01123046875,0.00341796875,1.04736328125,0.0,0.0,0.0,0.263671875,0.604248046875,-30.355224609375,1.0474290662615235,0.0,1.041567829520486,0.0058612367410375565,0.0037245737021978035,0.004024202402088586,0.9255433325780847,4.0,0,0
1783054863.4104142,2026-07-03T14:01:03.410,-0.01025390625,0.0029296875,1.04638671875,0.0,0.0,0.0,0.263671875,0.604248046875,-30.355224609375,1.0464410594193172,0.0,1.041572121462145,0.004868937957172248,0.004010664765941415,0.004020700198213551,0.9975040585526385,4.0,0,0
1783054863.4104142,2026-07-03T14:01:03.410,-0.00634765625,0.0048828125,1.0341796875,0.0,0.0,0.0,0.263671875,0.604248046875,-30.355224609375,1.0342106945083174,0.0,1.041815330922996,0.007604636414678678,0.004909157678125731,0.004063216061231839,1.208195085898885,4.0,0,0
1783054863.4104142,2026-07-03T14:01:03.410,-0.0087890625,0.0048828125,1.048828125,0.0,0.0,0.0,0.263671875,0.604248046875,-30.355224609375,1.048876315524645,0.0,1.041572121462145,0.007304194062500047,0.00550791677421931,0.004178938614359618,1.3180181099796664,4.0,0,0
1783054863.447417,2026-07-03T14:01:03.447,-0.00927734375,0.0048828125,1.041015625,0.0,0.0,0.0,0.263671875,0.604248046875,-30.355224609375,1.0410684139186561,0.0,1.041815330922996,0.0007469170043399309,0.004317666831749466,0.004192902663342008,1.0297560373862846,4.0,0,0
1783054863.4487827,2026-07-03T14:01:03.448,-0.0078125,0.0048828125,1.04345703125,0.0,0.0,0.0,0.263671875,0.604248046875,-30.355224609375,1.043497701520815,0.0,1.041572121462145,0.00192558005866994,0.0037196451384795843,0.004205350802345423,0.8845029376396021,4.0,0,0
1783054863.4487827,2026-07-03T14:01:03.448,-0.00830078125,0.00439453125,1.044921875,0.0,0.0,0.0,0.263671875,0.604248046875,-30.355224609375,1.0449640853769966,0.0,1.041815330922996,0.0031487544540005352,0.003576922467359822,0.004209449006843833,0.8497365003221008,4.0,0,0
1783054863.4487827,2026-07-03T14:01:03.448,-0.009765625,0.00439453125,1.0439453125,0.0,0.0,0.0,0.263671875,0.604248046875,-30.355224609375,1.0440002369862138,0.0,1.0420585403838472,0.0019416966023666493,0.0031681160011115287,0.004205107160420459,0.7533972096907886,4.0,0,0
1783054863.4487827,2026-07-03T14:01:03.448,-0.01123046875,0.001953125,1.041015625,0.0,0.0,0.0,0.263671875,0.604248046875,-30.355224609375,1.0410780324354898,0.0,1.0422986062318402,0.0012205737963504326,0.0026812304499212545,0.004203483859105122,0.6378591044458204,4.0,0,0
1783054863.4487827,2026-07-03T14:01:03.448,-0.00927734375,0.0029296875,1.04248046875,0.0,0.0,0.0,0.263671875,0.604248046875,-30.355224609375,1.0425258653391403,0.0,1.0420585403838472,0.0004673249552931136,0.0021277540762642193,0.004176391185648521,0.5094719296353022,4.0,0,0
1783054863.4487827,2026-07-03T14:01:03.448,-0.00927734375,0.0048828125,1.04638671875,0.0,0.0,0.0,0.263671875,0.604248046875,-30.355224609375,1.0464392367172388,0.0,1.0422922028614936,0.004147033855745219,0.002632574021134469,0.00417766490000407,0.6301544245762518,4.0,0,0
1783054863.4487827,2026-07-03T14:01:03.448,-0.009765625,0.00341796875,1.03857421875,0.0,0.0,0.0,0.263671875,0.604248046875,-30.355224609375,1.038625754443914,0.0,1.0425258653391403,0.0039001108952263497,0.002949458239657439,0.004168245533323465,0.7076018473666422,4.0,0,0
1783054863.471936,2026-07-03T14:01:03.471,-0.01123046875,0.00390625,1.046875,0.0,0.0,0.0,0.263671875,0.604248046875,-30.355224609375,1.0469425236575345,0.0,1.0422922028614936,0.0046503207960408854,0.003374673878753301,0.0040890538330923785,0.8252945587173104,4.0,0,0
1783054863.471936,2026-07-03T14:01:03.471,-0.01171875,0.00439453125,1.04296875,0.0,0.0,0.0,0.263671875,0.604248046875,-30.355224609375,1.0430438411126506,0.0,1.0425258653391403,0.0005179757735103152,0.0026604993524425545,0.0040973898663994295,0.6493156470805794,4.0,0,0
1783054863.471936,2026-07-03T14:01:03.471,-0.009765625,0.00390625,1.03759765625,0.0,0.0,0.0,0.263671875,0.604248046875,-30.355224609375,1.0376509637041718,0.0,1.0425322687094867,0.004881305005314918,0.0032157007656606453,0.004053625999630361,0.7932899497767866,4.0,0,0
1783054863.471936,2026-07-03T14:01:03.471,-0.01123046875,0.00732421875,1.04833984375,0.0,0.0,0.0,0.263671875,0.604248046875,-30.355224609375,1.0484255794296593,0.0,1.0425258653391403,0.005899714090519037,0.0038867040968752434,0.004069075402710231,0.9551811436786063,4.0,0,0
1783054863.471936,2026-07-03T14:01:03.471,-0.009765625,0.00390625,1.0390625,0.0,0.0,0.0,0.263671875,0.604248046875,-30.355224609375,1.039115732306538,0.0,1.0425322687094867,0.003416536402948589,0.00376916217339358,0.004087305460717358,0.9221630753117382,4.0,0,0
1783054863.471936,2026-07-03T14:01:03.471,-0.00830078125,0.00390625,1.04052734375,0.0,0.0,0.0,0.263671875,0.604248046875,-30.355224609375,1.0405677848414554,0.0,1.0425258653391403,0.0019580804976848665,0.0033163917544664014,0.004077221055035287,0.8133951310711308,4.0,0,0
1783054863.471936,2026-07-03T14:01:03.471,-0.0078125,0.005859375,1.04541015625,0.0,0.0,0.0,0.263671875,0.604248046875,-30.355224609375,1.045455767702436,0.0,1.0422922028614936,0.00316356484094249,0.0032781850260854236,0.004064901698744171,0.8064610829576028,4.0,0,0
1783054863.471936,2026-07-03T14:01:03.471,-0.0107421875,0.00439453125,1.04150390625,0.0,0.0,0.0,0.263671875,0.604248046875,-30.355224609375,1.0415685734656173,0.0,1.0425258653391403,0.0009572918735230029,0.0026979617379448186,0.0040507767654185105,0.6660356504898822,4.0,0,0
1783054863.5324776,2026-07-03T14:01:03.532,-0.01318359375,0.0029296875,1.0400390625,0.0,0.0,0.0,0.263671875,0.604248046875,-30.355224609375,1.0401267431130168,0.0,1.0422922028614936,0.0021654597484768168,0.002564836240577818,0.004044200650645487,0.6342010355417083,4.0,0,0
1783054863.5324776,2026-07-03T14:01:03.532,-0.009765625,0.00341796875,1.0458984375,0.0,0.0,0.0,0.2581787109375,0.604248046875,-30.355224609375,1.0459496123174186,0.0,1.0420585403838472,0.0038910719335714106,0.002896395163826216,0.004051364497427732,0.7149184344349114,4.0,0,0
1783054863.5324776,2026-07-03T14:01:03.532,-0.01220703125,0.001953125,1.0419921875,0.0,0.0,0.0,0.2581787109375,0.604248046875,-30.355224609375,1.042065518631261,0.0,1.0422922028614936,0.00022668423023253226,0.002228967430427795,0.00404489916789605,0.5510563645489315,4.0,0,0
1783054863.5324776,2026-07-03T14:01:03.532,-0.01025390625,0.00146484375,1.0400390625,0.0,0.0,0.0,0.2581787109375,0.604248046875,-30.355224609375,1.0400906402263577,0.0,1.042065518631261,0.001974878404903402,0.0021654451740466965,0.004052947955017385,0.5342889171241302,4.0,0,0
1783054863.5324776,2026-07-03T14:01:03.532,-0.01025390625,0.00146484375,1.048828125,0.0,0.0,0.0,0.2581787109375,0.604248046875,-30.355224609375,1.0488792705319385,0.0,1.0420620295075542,0.006817241024384302,0.003328394136631098,0.004046368941303852,0.8225631881107206,4.0,0,0
1783054863.5324776,2026-07-03T14:01:03.532,-0.0078125,0.0048828125,1.041015625,0.0,0.0,0.0,0.2581787109375,0.604248046875,-30.355224609375,1.0410563906476444,0.0,1.042065518631261,0.0010091279836166311,0.0027485775983774816,0.004052947955017385,0.6781675039707465,4.0,0,0
1783054863.5324776,2026-07-03T14:01:03.532,-0.00927734375,0.00439453125,1.0390625,0.0,0.0,0.0,0.2581787109375,0.5987548828125,-30.355224609375,1.0391132084225534,0.0,1.0420620295075542,0.00294882108500083,0.0027986384700333187,0.004029750203512473,0.694494280959134,4.0,0,0
1783054863.5324776,2026-07-03T14:01:03.532,-0.01025390625,0.00439453125,1.0498046875,0.0,0.0,0.0,0.2581787109375,0.5987548828125,-30.355224609375,1.049863960899346,0.0,1.0420585403838472,0.007805420515498929,0.004050333981399722,0.003992656544744373,1.0144458798318807,4.0,0,0
1783054863.5604708,2026-07-03T14:01:03.560,-0.0087890625,0.00439453125,1.037109375,0.0,0.0,0.0,0.2581787109375,0.5987548828125,-30.355224609375,1.0371559261930805,0.0,1.0420620295075542,0.00490610331447372,0.004264276314668221,0.004029750203512473,1.0581986722033854,4.0,0,0
1783054863.5604708,2026-07-03T14:01:03.560,-0.00927734375,0.005859375,1.04052734375,0.0,0.0,0.0,0.2581787109375,0.5987548828125,-30.355224609375,1.0405851980851337,0.0,1.0420585403838472,0.0014733422987134315,0.0035665428106795237,0.004052947955017385,0.8799873204057034,4.0,0,0
1783054863.5604708,2026-07-03T14:01:03.560,-0.0078125,0.00341796875,1.04638671875,0.0,0.0,0.0,0.2581787109375,0.5987548828125,-30.355224609375,1.0464214652055919,0.0,1.041815330922996,0.00460613428259582,0.0038264406786585976,0.00404489916789605,0.9459916106262092,4.0,0,0
1783054863.5604708,2026-07-03T14:01:03.560,-0.00927734375,0.00537109375,1.041015625,0.0,0.0,0.0,0.2581787109375,0.5987548828125,-30.355224609375,1.0410708185561959,0.0,1.0420585403838472,0.0009877218276512778,0.0031167609659067674,0.004051364497427732,0.7693114178903534,4.0,0,0
1783054863.5604708,2026-07-03T14:01:03.560,-0.01025390625,0.0009765625,1.04150390625,0.0,0.0,0.0,0.2581787109375,0.5987548828125,-30.355224609375,1.041554839171567,0.0,1.041815330922996,0.00026049175142905945,0.0024026936622873404,0.00404489916789605,0.5940058237686798,4.0,0,0
1783054863.5604708,2026-07-03T14:01:03.560,-0.01123046875,0.00244140625,1.0498046875,0.0,0.0,0.0,0.2581787109375,0.5987548828125,-30.355224609375,1.0498675944088354,0.0,1.041572121462145,0.008295472946690419,0.00387588848338811,0.004052947955017385,0.9563134109802515,4.0,0,0
1783054863.5604708,2026-07-03T14:01:03.560,-0.01171875,0.00390625,1.041015625,0.0,0.0,0.0,0.2581787109375,0.5987548828125,-30.355224609375,1.0410889104129222,0.0,1.041815330922996,0.0007264205100738774,0.003088521490059552,0.004062652227547659,0.7602229570912296,4.0,0,0
1783054863.5604708,2026-07-03T14:01:03.560,-0.01220703125,0.0029296875,1.037109375,0.0,0.0,0.0,0.2581787109375,0.5987548828125,-30.355224609375,1.0371853500670345,0.0,1.041572121462145,0.004386771395110456,0.0034130839663222778,0.004052947955017385,0.8421238082016371,4.0,0,0
1783054863.5963573,2026-07-03T14:01:03.596,-0.01025390625,0.00341796875,1.05078125,0.0,0.0,0.0,0.2581787109375,0.5987548828125,-30.355224609375,1.050836838170095,0.0,1.041570347463881,0.009266490706213881,0.0048764356512951785,0.00404489916789605,1.2055765666543554,4.0,0,0
1783054863.5963573,2026-07-03T14:01:03.596,-0.01171875,0.00439453125,1.04052734375,0.0,0.0,0.0,0.2581787109375,0.5987548828125,-30.355224609375,1.040602611037422,0.0,1.041572121462145,0.0009695104247229303,0.0038997043446521162,0.004051364497427732,0.9625656608108437,4.0,0,0
1783054863.5963573,2026-07-03T14:01:03.596,-0.0087890625,0.00439453125,1.0390625,0.0,0.0,0.0,0.2581787109375,0.5987548828125,-30.355224609375,1.0391089636947544,0.0,1.041570347463881,0.002461383769126746,0.0035401242007707737,0.004064901698744171,0.8709003225993079,4.0,0,0
1783054863.5963573,2026-07-03T14:01:03.596,-0.0087890625,0.005859375,1.0478515625,0.0,0.0,0.0,0.2581787109375,0.5987548828125,-30.355224609375,1.0479048033713325,0.0,1.0415685734656173,0.006336229905715252,0.004239150627006893,0.0040507767654185105,1.046503145568655,4.0,0,0
1783054863.5963573,2026-07-03T14:01:03.596,-0.00732421875,0.00244140625,1.037109375,0.0,0.0,0.0,0.2581787109375,0.5987548828125,-30.355224609375,1.0371381105511772,0.0,1.041570347463881,0.004432236912703891,0.004287422198431142,0.004089344416884031,1.0484375394572516,4.0,0,0
1783054863.5963573,2026-07-03T14:01:03.596,-0.00927734375,0.00537109375,1.0390625,0.0,0.0,0.0,0.2581787109375,0.5987548828125,-30.355224609375,1.0391177972979662,0.0,1.0415685734656173,0.002450776167651103,0.0038282606907361324,0.004109597555278244,0.9315415047926601,4.0,0,0
1783054863.5963573,2026-07-03T14:01:03.596,-0.00927734375,0.00634765625,1.046875,0.0,0.0,0.0,0.2581787109375,0.5987548828125,-30.355224609375,1.046935350187357,0.0,1.0415660555222221,0.005369294665134916,0.0042135191843358285,0.004110279617305509,1.0251174072429645,4.0,0,0
1783054863.5963573,2026-07-03T14:01:03.596,-0.01220703125,0.0029296875,1.04150390625,0.0,0.0,0.0,0.2581787109375,0.5987548828125,-30.355224609375,1.041579560770465,0.0,1.0415685734656173,1.098730484772048e-05,0.0031628862144638015,0.004110961679332776,0.7693786663993302,4.0,0,0
1783054863.6504083,2026-07-03T14:01:03.650,-0.01025390625,0.00146484375,1.041015625,0.0,0.0,0.0,0.2581787109375,0.5987548828125,-30.355224609375,1.041067154344395,0.0,1.041570347463881,0.0005031931194861006,0.0024979629407193764,0.004110279617305509,0.6077355249025403,4.0,0,0
1783054863.6504083,2026-07-03T14:01:03.650,-0.01025390625,0.00390625,1.04736328125,0.0,0.0,0.0,0.2581787109375,0.5987548828125,-30.355224609375,1.0474207580018704,0.0,1.0415685734656173,0.0058521845362531355,0.003336518339602816,0.004112295905184396,0.811351716056339,4.0,0,0
1783054863.6504083,2026-07-03T14:01:03.650,-0.0107421875,0.0009765625,1.04150390625,0.0,0.0,0.0,0.2581787109375,0.5987548828125,-30.355224609375,1.0415597606477558,0.0,1.041570347463881,1.0586816125313092e-05,0.00250503545873344,0.004110279617305509,0.6094562151408118,4.0,0,0
1783054863.6504083,2026-07-03T14:01:03.650,-0.0126953125,0.001953125,1.041015625,0.0,0.0,0.0,0.2581787109375,0.5987548828125,-30.355224609375,1.04109486462612,0.0,1.0415685734656173,0.0004737088394972666,0.001997203803924397,0.004112295905184396,0.4856663649633068,4.0,0,0
1783054863.6504083,2026-07-03T14:01:03.650,-0.01171875,0.00341796875,1.04736328125,0.0,0.0,0.0,0.2581787109375,0.5987548828125,-30.355224609375,1.0474344153801254,0.0,1.0415660555222221,0.005868359857903238,0.0029649928174191073,0.004116739832927903,0.7202283694741886,4.0,0,0
1783054863.6504083,2026-07-03T14:01:03.650,-0.009765625,0.00244140625,1.041015625,0.0,0.0,0.0,0.2581787109375,0.5987548828125,-30.355224609375,1.041064291669952,0.0,1.0415685734656173,0.0005042817956653067,0.002349815061980657,0.004108558940784352,0.5719316908551058,4.0,0,0
1783054863.6504083,2026-07-03T14:01:03.650,-0.00927734375,0.0029296875,1.0419921875,0.0,0.0,0.0,0.2581787109375,0.5987548828125,-30.355224609375,1.0420376053612166,0.0,1.0415660555222221,0.000471549838994445,0.0018802487562341041,0.004114262428215219,0.4570074926041513,4.0,0,0
1783054863.6504083,2026-07-03T14:01:03.650,-0.0087890625,0.005859375,1.04638671875,0.0,0.0,0.0,0.2581787109375,0.5987548828125,-30.355224609375,1.0464400341497888,0.0,1.0415685734656173,0.004871460684171547,0.002628051738218465,0.0041217714926806304,0.637602483030734,4.0,0,0
1783054863.6830978,2026-07-03T14:01:03.683,-0.0078125,0.00146484375,1.03662109375,0.0,0.0,0.0,0.2581787109375,0.5987548828125,-30.355224609375,1.036651567755969,0.0,1.041570347463881,0.004918779707912213,0.003200733730641902,0.004112012957018707,0.778386100456867,4.0,0,0
1783054863.6841471,2026-07-03T14:01:03.684,-0.00927734375,0.00537109375,1.04150390625,0.0,0.0,0.0,0.2581787109375,0.5987548828125,-30.355224609375,1.0415590739315441,0.0,1.0415685734656173,9.499534073142968e-06,0.002402925181499712,0.0040973898663994295,0.586452658851152,4.0,0,0
1783054863.6841471,2026-07-03T14:01:03.684,-0.00830078125,0.0048828125,1.046875,0.0,0.0,0.0,0.2581787109375,0.5987548828125,-30.355224609375,1.046919295099804,0.0,1.0415660555222221,0.005353239577581936,0.0031405037805202684,0.004105138362021997,0.7650177664105345,4.0,0,0
1783054863.6841471,2026-07-03T14:01:03.684,-0.01025390625,0.0048828125,1.04150390625,0.0,0.0,0.0,0.2581787109375,0.5987548828125,-30.355224609375,1.0415658266212955,0.0,1.0415685734656173,2.7468443217770755e-06,0.0023560645464706454,0.00407140177964682,0.5786863281950586,4.0,0,0
1783054863.6841471,2026-07-03T14:01:03.684,-0.009765625,0.00537109375,1.0390625,0.0,0.0,0.0,0.2581787109375,0.5987548828125,-30.355224609375,1.039122271431982,0.0,1.0415672000434564,0.002444928611474273,0.0023782805627215525,0.00408381978677952,0.5823666779863107,4.0,0,0
1783054863.6841471,2026-07-03T14:01:03.684,-0.01171875,0.00390625,1.04931640625,0.0,0.0,0.0,0.2581787109375,0.5987548828125,-30.355224609375,1.0493891119675485,0.0,1.0415658266212955,0.007823285346252984,0.00373953175860441,0.004062538574078808,0.9204913849839221,4.0,0,0
1783054863.6841471,2026-07-03T14:01:03.684,-0.0126953125,0.0029296875,1.0400390625,0.0,0.0,0.0,0.2581787109375,0.5987548828125,-30.355224609375,1.0401206687467561,0.0,1.0415672000434564,0.0014465312967002486,0.00316628164312837,0.00408381978677952,0.7753235471796576,4.0,0,0
1783054863.6841471,2026-07-03T14:01:03.684,-0.0107421875,0.00341796875,1.0419921875,0.0,0.0,0.0,0.2581787109375,0.5987548828125,-30.355224609375,1.0420531636695396,0.0,1.0415658266212955,0.0004873370482441075,0.0024965454944073043,0.004061280671238752,0.614718778755525,4.0,0,0
1783054863.7146683,2026-07-03T14:01:03.714,-0.01123046875,0.00244140625,1.048828125,0.0,0.0,0.0,0.2581787109375,0.5987548828125,-30.355224609375,1.0488910904778617,0.0,1.0415672000434564,0.007323890434405289,0.0037033817294068005,0.004059965636116274,0.9121707081613187,4.0,0,0
1783054863.7146683,2026-07-03T14:01:03.714,-0.01025390625,0.0029296875,1.0380859375,0.0,0.0,0.0,0.2581787109375,0.5987548828125,-30.355224609375,1.0381407126673559,0.0,1.0415685734656173,0.003427860798261406,0.003634501496620452,0.004061280671238752,0.8949151242757802,4.0,0,0
1783054863.7146683,2026-07-03T14:01:03.714,-0.0087890625,0.0048828125,1.04296875,0.0,0.0,0.0,0.2581787109375,0.5987548828125,-30.355224609375,1.0430172112453857,0.0,1.0415672000434564,0.0014500112019293354,0.003088378922947673,0.004058613456327727,0.7609443363305822,4.0,0,0
1783054863.7146683,2026-07-03T14:01:03.714,-0.00927734375,0.00634765625,1.046875,0.0,0.0,0.0,0.2581787109375,0.5987548828125,-30.355224609375,1.046935350187357,0.0,1.0415685734656173,0.005366776721739797,0.003657978372645704,0.0040592270561368975,0.9011514561905153,4.0,0,0
1783054863.7146683,2026-07-03T14:01:03.715,-0.00927734375,0.00390625,1.03662109375,0.0,0.0,0.0,0.252685546875,0.5987548828125,-30.355224609375,1.036669966722083,0.0,1.041570347463881,0.004900380741798216,0.003968578964933832,0.004041134894990993,0.9820456550096622,4.0,0,0
1783054863.7156725,2026-07-03T14:01:03.715,-0.0107421875,0.0029296875,1.0439453125,0.0,0.0,0.0,0.252685546875,0.5987548828125,-30.355224609375,1.0440046901962918,0.0,1.0415685734656173,0.0024361167306745646,0.0035854634063690154,0.004057999856518556,0.8835543452791199,4.0,0,0
1783054863.7156725,2026-07-03T14:01:03.715,-0.0107421875,0.00390625,1.04638671875,0.0,0.0,0.0,0.252685546875,0.5987548828125,-30.355224609375,1.0464491476214883,0.0,1.041570347463881,0.0048788001576072215,0.003908797594178567,0.0040594337276595605,0.9628923284411292,4.0,0,0
1783054863.7156725,2026-07-03T14:01:03.715,-0.01123046875,0.0009765625,1.04150390625,0.0,0.0,0.0,0.252685546875,0.5987548828125,-30.355224609375,1.0415649110049119,0.0,1.041572121462145,7.21045723306446e-06,0.0029334008099421915,0.004075780139361499,0.7197151734494026,4.0,0,0
1783054863.771189,2026-07-03T14:01:03.771,-0.009765625,0.0029296875,1.03759765625,0.0,0.0,0.0,0.252685546875,0.5987548828125,-30.355224609375,1.0376477469526841,0.0,1.041570347463881,0.003922600511196972,0.0031807007352558864,0.0040594337276595605,0.7835331104394451,4.0,0,0
1783054863.771189,2026-07-03T14:01:03.771,-0.01171875,0.0029296875,1.05029296875,0.0,0.0,0.0,0.252685546875,0.5987548828125,-30.355224609375,1.050362429057751,0.0,1.0415685734656173,0.008793855592133637,0.004583989449475324,0.0040497920526088894,1.1319073646071045,4.0,0,0
1783054863.771189,2026-07-03T14:01:03.771,-0.01171875,0.0029296875,1.041015625,0.0,0.0,0.0,0.252685546875,0.5987548828125,-30.355224609375,1.0410857042840185,0.0,1.041570347463881,0.0004846431798626316,0.003559152882072151,0.0040594337276595605,0.8767609279642451,4.0,0,0
1783054863.771189,2026-07-03T14:01:03.771,-0.01220703125,0.00244140625,1.03955078125,0.0,0.0,0.0,0.252685546875,0.5987548828125,-30.355224609375,1.0396253165799212,0.0,1.0415685734656173,0.0019432568856960764,0.0031551788829781323,0.004069075402710231,0.7754043783205904,4.0,0,0
1783054863.771189,2026-07-03T14:01:03.771,-0.009765625,0.005859375,1.04931640625,0.0,0.0,0.0,0.252685546875,0.59326171875,-30.355224609375,1.0493782064310495,0.0,1.0415672000434564,0.0078110063875931335,0.004319135759131882,0.004055777632550949,1.0649340645471457,4.0,0,0
1783054863.771189,2026-07-03T14:01:03.771,-0.01123046875,0.00341796875,1.03857421875,0.0,0.0,0.0,0.252685546875,0.59326171875,-30.355224609375,1.0386405604398923,0.0,1.0415685734656173,0.002928013025724985,0.0039713550757801575,0.004069075402710231,0.9759846360023248,4.0,0,0
1783054863.771189,2026-07-03T14:01:03.771,-0.00927734375,0.00634765625,1.04443359375,0.0,0.0,0.0,0.252685546875,0.59326171875,-30.355224609375,1.0444940850002282,0.0,1.0415672000434564,0.002926884956771847,0.00371023754602808,0.0040765005971983926,0.9101525824816438,4.0,0,0
1783054863.771189,2026-07-03T14:01:03.771,-0.0078125,0.00439453125,1.04248046875,0.0,0.0,0.0,0.252685546875,0.59326171875,-30.355224609375,1.0425190045204822,0.0,1.0415685734656173,0.0009504310548649197,0.0030202859232372897,0.004077221055035287,0.7407707069272824,4.0,0,0
1783054863.8052845,2026-07-03T14:01:03.805,-0.0087890625,0.0048828125,1.0390625,0.0,0.0,0.0,0.252685546875,0.59326171875,-30.355224609375,1.0391111434220062,0.0,1.041570347463881,0.0024592040418749406,0.0028800154528967024,0.004062652227547659,0.7089003172282773,4.0,0,0
1783054863.8052845,2026-07-03T14:01:03.805,-0.0078125,0.00390625,1.04345703125,0.0,0.0,0.0,0.252685546875,0.59326171875,-30.355224609375,1.0434935888688421,0.0,1.0415685734656173,0.0019250154032248723,0.002641265440478745,0.004052947955017385,0.651689947611828,4.0,0,0
1783054863.8052845,2026-07-03T14:01:03.805,-0.00830078125,0.00537109375,1.044921875,0.0,0.0,0.0,0.252685546875,0.59326171875,-30.355224609375,1.044968648558868,0.0,1.041570347463881,0.003398301094986955,0.0028305243541057977,0.004049334683391037,0.699009732565605,4.0,0,0
1783054863.8052845,2026-07-03T14:01:03.805,-0.0107421875,0.00341796875,1.04248046875,0.0,0.0,0.0,0.252685546875,0.59326171875,-30.355224609375,1.0425414163609428,0.0,1.041572121462145,0.0009692948987978234,0.002365216990278804,0.004043087315957622,0.5850026985426587,4.0,0,0
1783054863.8052845,2026-07-03T14:01:03.805,-0.009765625,0.0029296875,1.04248046875,0.0,0.0,0.0,0.252685546875,0.59326171875,-30.355224609375,1.0425303248470559,0.0,1.041575841116305,0.0009544837307509102,0.002012533675396831,0.004021572727110595,0.5004344847053875,4.0,0,0
1783054863.8052845,2026-07-03T14:01:03.805,-0.0126953125,0.001953125,1.04931640625,0.0,0.0,0.0,0.252685546875,0.59326171875,-30.355224609375,1.0493950190858319,0.0,1.041579560770465,0.007815458315366897,0.0034632648353893473,0.004009223610472408,0.8638243140998738,4.0,0,0
1783054863.8052845,2026-07-03T14:01:03.805,-0.0107421875,0.00146484375,1.0400390625,0.0,0.0,0.0,0.252685546875,0.59326171875,-30.355224609375,1.0400955686307753,0.0,1.0418085830658408,0.0017130144350654408,0.003025702235308371,0.004021572727110595,0.7523679019681104,4.0,0,0
1783054863.8052845,2026-07-03T14:01:03.805,-0.01025390625,0.00244140625,1.04443359375,0.0,0.0,0.0,0.252685546875,0.59326171875,-30.355224609375,1.044486780582407,0.0,1.041579560770465,0.0029072198119419745,0.0029960816294667715,0.004000058138263568,0.7490095208384585,4.0,0,0
1783054863.84648,2026-07-03T14:01:03.846,-0.0078125,0.00537109375,1.0458984375,0.0,0.0,0.0,0.252685546875,0.59326171875,-30.355224609375,1.0459414062791772,0.0,1.0418085830658408,0.004132823213336412,0.0032802670254341816,0.0039898516703941725,0.822152625315545,4.0,0,0
1783054863.84648,2026-07-03T14:01:03.846,-0.01025390625,0.00341796875,1.03662109375,0.0,0.0,0.0,0.252685546875,0.59326171875,-30.355224609375,1.036677441208791,0.0,1.0420376053612166,0.005360164152425684,0.003800241307182057,0.0039933534016123,0.9516416217126502,4.0,0,0
1783054863.84648,2026-07-03T14:01:03.846,-0.00537109375,0.00390625,1.04931640625,0.0,0.0,0.0,0.252685546875,0.59326171875,-30.355224609375,1.0493374232641037,0.0,1.0418085830658408,0.007528840198262943,0.004732391029952278,0.004011777409625049,1.1796245271730017,4.0,0,0
1783054863.84648,2026-07-03T14:01:03.846,-0.00830078125,0.00390625,1.04296875,0.0,0.0,0.0,0.252685546875,0.59326171875,-30.355224609375,1.0430090964296455,0.0,1.0420376053612166,0.0009714910684288647,0.0037921660395714247,0.004043087315957622,0.9379381999998272,4.0,0,0
1783054863.84648,2026-07-03T14:01:03.846,-0.00830078125,0.00439453125,1.04052734375,0.0,0.0,0.0,0.252685546875,0.59326171875,-30.355224609375,1.0405697323897607,0.0,1.042045384515378,0.0014756521256173993,0.003213037561082918,0.004049334683391037,0.7934729560047681,4.0,0,0
1783054863.84648,2026-07-03T14:01:03.846,-0.00830078125,0.0029296875,1.0458984375,0.0,0.0,0.0,0.252685546875,0.59326171875,-30.355224609375,1.045935479655963,0.0,1.0420376053612166,0.0038978742947464173,0.003384246744498793,0.004052947955017385,0.835008685544366,4.0,0,0
1783054863.84648,2026-07-03T14:01:03.846,-0.00927734375,0.0029296875,1.04443359375,0.0,0.0,0.0,0.252685546875,0.59326171875,-30.355224609375,1.0444789054497192,0.0,1.042045384515378,0.002433520934341127,0.0031465652919593764,0.004045247933156045,0.7778423829524019,4.0,0,0
1783054863.84648,2026-07-03T14:01:03.846,-0.009765625,0.0029296875,1.0419921875,0.0,0.0,0.0,0.252685546875,0.59326171875,-30.355224609375,1.0420420669586825,0.0,1.0420531636695396,1.1096710857083636e-05,0.002362698146683803,0.004038433838364368,0.5850530778141297,4.0,0,0
1783054863.8756773,2026-07-03T14:01:03.875,-0.01025390625,0.00390625,1.04296875,0.0,0.0,0.0,0.252685546875,0.59326171875,-30.355224609375,1.0430264689158222,0.0,1.042047615314111,0.0009788536017112381,0.0020167370104406616,0.004042077625064529,0.49893574480981573,4.0,0,0
1783054863.8756773,2026-07-03T14:01:03.875,-0.01123046875,0.0029296875,1.05029296875,0.0,0.0,0.0,0.252685546875,0.59326171875,-30.355224609375,1.050357094850547,0.0,1.0420531636695396,0.008303931181007362,0.0035885355530823368,0.004043087315957622,0.8875731025938473,4.0,0,0
1783054863.8756773,2026-07-03T14:01:03.875,-0.01171875,0.00146484375,1.0400390625,0.0,0.0,0.0,0.252685546875,0.59326171875,-30.355224609375,1.0401061130455167,0.0,1.0420558520266934,0.001949738981176674,0.003178836410105921,0.004042077625064529,0.7864362600050694,4.0,0,0
1783054863.8756773,2026-07-03T14:01:03.875,-0.01318359375,0.00439453125,1.04443359375,0.0,0.0,0.0,0.252685546875,0.59326171875,-30.355224609375,1.044526041227605,0.0,1.0420531636695396,0.002472877558065356,0.00300234669709578,0.004030201417637798,0.7449619475484007,4.0,0,0
1783054863.8756773,2026-07-03T14:01:03.875,-0.01025390625,0.00439453125,1.0439453125,0.0,0.0,0.0,0.252685546875,0.59326171875,-30.355224609375,1.0440049185655276,0.0,1.0420558520266934,0.0019490665388341988,0.0027390266575303846,0.00400486205457545,0.683925343795829,4.0,0,0
1783054863.8756773,2026-07-03T14:01:03.875,-0.009765625,0.00390625,1.0390625,0.0,0.0,0.0,0.252685546875,0.59326171875,-30.355224609375,1.039115732306538,0.0,1.0420585403838472,0.002942808077309067,0.002789972012475055,0.003987046796043973,0.6997590334889775,4.0,0,0
1783054863.8756773,2026-07-03T14:01:03.875,-0.00927734375,0.00634765625,1.0498046875,0.0,0.0,0.0,0.252685546875,0.59326171875,-30.355224609375,1.0498648692778974,0.0,1.0420558520266934,0.007809017251203976,0.004044733322157285,0.0039872648357038255,1.0144130096247583,4.0,0,0
1783054863.8756773,2026-07-03T14:01:03.875,-0.00927734375,0.00634765625,1.04248046875,0.0,0.0,0.0,0.252685546875,0.59326171875,-30.355224609375,1.0425410733261993,0.0,1.0420585403838472,0.00048253294235212074,0.003154183227205994,0.003987046796043973,0.791107651491735,4.0,0,0
1783054863.9243917,2026-07-03T14:01:03.924,-0.0078125,0.0029296875,1.0400390625,0.0,0.0,0.0,0.252685546875,0.59326171875,-30.355224609375,1.0400725310049181,0.0,1.0420620295075542,0.001989498502636078,0.002863012046063515,0.0039872648357038255,0.7180390979868636,4.0,0,0
1783054863.9243917,2026-07-03T14:01:03.924,-0.00927734375,0.00537109375,1.044921875,0.0,0.0,0.0,0.252685546875,0.59326171875,-30.355224609375,1.0449768622360223,0.0,1.0420585403838472,0.0029183218521751098,0.0028768394975914133,0.00398748287536368,0.7214675492064728,4.0,0,0
1783054863.9243917,2026-07-03T14:01:03.924,-0.009765625,0.00439453125,1.04248046875,0.0,0.0,0.0,0.252685546875,0.59326171875,-30.355224609375,1.042535470409409,0.0,1.0420620295075542,0.0004734409018547492,0.0022759898486572473,0.003978770152635891,0.5720335081807701,4.0,0,0
1783054863.9243917,2026-07-03T14:01:03.924,-0.0126953125,0.0009765625,1.041015625,0.0,0.0,0.0,0.252685546875,0.59326171875,-30.355224609375,1.041093490579943,0.0,1.042065518631261,0.0009720280513181301,0.0019499993993224679,0.003975756789703143,0.4904725068627923,4.0,0,0
1783054863.9243917,2026-07-03T14:01:03.924,-0.0126953125,0.0029296875,1.03955078125,0.0,0.0,0.0,0.252685546875,0.59326171875,-30.355224609375,1.0396324258245342,0.0,1.0420620295075542,0.002429603683020032,0.0020699004702468588,0.0039812275755196115,0.5199151344611856,4.0,0,0
1783054863.9243917,2026-07-03T14:01:03.924,-0.0126953125,0.00390625,1.046875,0.0,0.0,0.0,0.252685546875,0.59326171875,-30.355224609375,1.0469592615634742,0.0,1.0420585403838472,0.004900721179627032,0.0027776056475919022,0.003985871027185725,0.6968629011443619,4.0,0,0
1783054863.9243917,2026-07-03T14:01:03.924,-0.009765625,0.00244140625,1.03857421875,0.0,0.0,0.0,0.252685546875,0.59326171875,-30.355224609375,1.0386229998167242,0.0,1.0420620295075542,0.0034390296908299867,0.0029429616584014232,0.0039795588246934865,0.7395195769290069,4.0,0,0
1783054863.9243917,2026-07-03T14:01:03.924,-0.01123046875,0.00244140625,1.04638671875,0.0,0.0,0.0,0.252685546875,0.59326171875,-30.355224609375,1.046449831128666,0.0,1.0420585403838472,0.004391290744818921,0.0033050439300057978,0.003977441535983068,0.8309472056611689,4.0,0,0
1783054863.9677596,2026-07-03T14:01:03.967,-0.01025390625,0.00341796875,1.0458984375,0.0,0.0,0.0,0.2471923828125,0.59326171875,-30.355224609375,1.045954285171537,0.0,1.0420620295075542,0.00389225566398288,0.003451846863500068,0.003975515674753408,0.8682765069752059,4.0,0,0
1783054863.9677596,2026-07-03T14:01:03.967,-0.00927734375,0.00341796875,1.0380859375,0.0,0.0,0.0,0.2471923828125,0.59326171875,-30.355224609375,1.0381330190552103,0.0,1.042065518631261,0.003932499576050796,0.00357201004163775,0.0039727506647674795,0.8991276682214879,4.0,0,0
1783054863.9677596,2026-07-03T14:01:03.967,-0.009765625,0.00439453125,1.0478515625,0.0,0.0,0.0,0.2471923828125,0.59326171875,-30.355224609375,1.0479062822458118,0.0,1.0420620295075542,0.005844252738257616,0.004140070715792717,0.0039694231614492165,1.0429905171111054,4.0,0,0
1783054863.9677596,2026-07-03T14:01:03.967,-0.009765625,0.0048828125,1.0400390625,0.0,0.0,0.0,0.2471923828125,0.59326171875,-30.355224609375,1.0400963709269586,0.0,1.042065518631261,0.001969147704302454,0.0035973399629201513,0.003971865403604807,0.9057054047338206,4.0,0,0
1783054863.9677596,2026-07-03T14:01:03.967,-0.0087890625,0.00390625,1.037109375,0.0,0.0,0.0,0.2471923828125,0.59326171875,-30.355224609375,1.0371539722343939,0.0,1.0420620295075542,0.004908057273160349,0.003925019290480201,0.003974293869661526,0.9876016769777717,4.0,0,0
1783054863.9677596,2026-07-03T14:01:03.967,-0.0068359375,0.0068359375,1.04931640625,0.0,0.0,0.0,0.2471923828125,0.59326171875,-30.355224609375,1.0493609390998042,0.0,1.0420585403838472,0.007302398715957059,0.004769364146849415,0.003980639430792714,1.1981402058059885,4.0,0,0
1783054863.9677596,2026-07-03T14:01:03.967,-0.0078125,0.0048828125,1.0439453125,0.0,0.0,0.0,0.2471923828125,0.59326171875,-30.355224609375,1.0439859637489781,0.0,1.0420620295075542,0.001923934241423897,0.0040580066704930355,0.00398361129141951,1.0186753610307737,4.0,0,0
1783054863.9677596,2026-07-03T14:01:03.967,-0.01123046875,0.00341796875,1.0390625,0.0,0.0,0.0,0.2471923828125,0.59326171875,-30.355224609375,1.039128810516276,0.0,1.042065518631261,0.0029367081149851426,0.0037776820316160623,0.003986583152046306,0.9475989556813796,4.0,0,0
1783054863.997271,2026-07-03T14:01:03.997,-0.01171875,0.0029296875,1.046875,0.0,0.0,0.0,0.2471923828125,0.59326171875,-30.355224609375,1.0469446870754013,0.0,1.0420620295075542,0.004882657567847115,0.004053925915673826,0.0039933012414715445,1.015181593006978,4.0,0,0
1783054863.997271,2026-07-03T14:01:03.997,-0.01611328125,0.0029296875,1.0439453125,0.0,0.0,0.0,0.2471923828125,0.59326171875,-30.355224609375,1.0440737696121918,0.0,1.042065518631261,0.0020082509809307147,0.003542507181988048,0.004001685219760255,0.8852538336836708,4.0,0,0
1783054863.997271,2026-07-03T14:01:03.997,-0.01123046875,0.00146484375,1.03955078125,0.0,0.0,0.0,0.2471923828125,0.59326171875,-30.355224609375,1.0396124739502899,0.0,1.0422922615758716,0.002679787625581742,0.0033268272928864717,0.004005854499642545,0.8304912954734963,4.0,0,0
1783054863.997271,2026-07-03T14:01:03.997,-0.01123046875,0.001953125,1.046875,0.0,0.0,0.0,0.2471923828125,0.59326171875,-30.355224609375,1.046937058160905,0.0,1.042065518631261,0.00487153952964392,0.003713005352075834,0.003996937381390943,0.928962602557386,4.0,0,0
1783054863.997271,2026-07-03T14:01:03.997,-0.00830078125,0.00390625,1.04150390625,0.0,0.0,0.0,0.2471923828125,0.59326171875,-30.355224609375,1.0415443094234789,0.0,1.0422922615758716,0.0007479521523927612,0.0029717420521550657,0.003996638452302093,0.7435603914693161,4.0,0,0
1783054863.997271,2026-07-03T14:01:03.997,-0.01171875,0.001953125,1.0390625,0.0,0.0,0.0,0.2471923828125,0.59326171875,-30.355224609375,1.0391304166008606,0.0,1.042065518631261,0.0029351020304004827,0.00296258204671642,0.0039945037853979445,0.7416645986283071,4.0,0,0
1783054863.997271,2026-07-03T14:01:03.997,-0.01025390625,0.0048828125,1.04833984375,0.0,0.0,0.0,0.2471923828125,0.59326171875,-30.355224609375,1.048401360379253,0.0,1.0420620295075542,0.006339330871698801,0.003806769252962015,0.003979398129867367,0.9566193501450165,4.0,0,0
1783054863.997271,2026-07-03T14:01:03.997,-0.0068359375,0.00439453125,1.03857421875,0.0,0.0,0.0,0.2471923828125,0.59326171875,-30.355224609375,1.0386060127876133,0.0,1.042065518631261,0.0034595058436477366,0.0037199534006334455,0.0039945037853979445,0.9312679623015685,4.0,0,0
1783054864.0400224,2026-07-03T14:01:04.040,-0.0087890625,0.0068359375,1.03857421875,0.0,0.0,0.0,0.2471923828125,0.5877685546875,-30.355224609375,1.0386339035065753,0.0,1.0420620295075542,0.0034281260009789705,0.003646996550719827,0.003984235548490225,0.915356661606468,4.0,0,0
1783054864.0400224,2026-07-03T14:01:04.040,-0.0078125,0.00390625,1.04638671875,0.0,0.0,0.0,0.2471923828125,0.5877685546875,-30.355224609375,1.0464231740179037,0.0,1.0420585403838472,0.004364633634056592,0.003826405821554018,0.003976688976467465,0.9622089743998674,4.0,0,0
1783054864.0400224,2026-07-03T14:01:04.040,-0.009765625,0.0029296875,1.0419921875,0.0,0.0,0.0,0.2471923828125,0.5877685546875,-30.355224609375,1.0420420669586825,0.0,1.0420620295075542,1.996254887171034e-05,0.0028747950033834414,0.003985876097174075,0.721245451011793,4.0,0,0
1783054864.0400224,2026-07-03T14:01:04.040,-0.00830078125,0.00146484375,1.0419921875,0.0,0.0,0.0,0.2471923828125,0.5877685546875,-30.355224609375,1.042026279681855,0.0,1.0420585403838472,3.2260701992248286e-05,0.002164161428035643,0.003976688976467465,0.5442118910586994,4.0,0,0
1783054864.0400224,2026-07-03T14:01:04.040,-0.0107421875,0.00439453125,1.04345703125,0.0,0.0,0.0,0.2471923828125,0.5877685546875,-30.355224609375,1.0435215774301247,0.0,1.0420558520266934,0.0014657254034313727,0.0019895524218845754,0.003984235548490225,0.49935612432314425,4.0,0,0
1783054864.0400224,2026-07-03T14:01:04.040,-0.0107421875,0.001953125,1.04296875,0.0,0.0,0.0,0.2471923828125,0.5877685546875,-30.355224609375,1.0430258974570639,0.0,1.0420585403838472,0.0009673570732167125,0.0017340035847176096,0.0039945037853979445,0.43409736925430475,4.0,0,0
1783054864.0400224,2026-07-03T14:01:04.040,-0.0107421875,0.00146484375,1.04150390625,0.0,0.0,0.0,0.2471923828125,0.5877685546875,-30.355224609375,1.0415603329109198,0.0,1.0420620295075542,0.00050169659663446,0.0014259268376968222,0.003990486537081585,0.35733157459532844,4.0,0,0
1783054864.0410223,2026-07-03T14:01:04.041,-0.01220703125,0.00341796875,1.046875,0.0,0.0,0.0,0.2471923828125,0.5877685546875,-30.355224609375,1.0469517466183982,0.0,1.0420585403838472,0.0048932062345510285,0.0022927466869103737,0.003999555686899117,0.573250347387451,4.0,0,0
1783054864.0876038,2026-07-03T14:01:04.087,-0.01025390625,0.00390625,1.0419921875,0.0,0.0,0.0,0.2471923828125,0.5877685546875,-30.355224609375,1.0420499605074036,0.0,1.0420620295075542,1.2069000150605191e-05,0.0017225772652204314,0.0039933012414715445,0.4313667216815469,4.0,0,0
1783054864.0876038,2026-07-03T14:01:04.087,-0.009765625,0.001953125,1.03662109375,0.0,0.0,0.0,0.2471923828125,0.5877685546875,-30.355224609375,1.0366689317889066,0.0,1.0420585403838472,0.0053896085949405315,0.0026393350976504563,0.003987046796043973,0.6619774566652332,4.0,0,0
1783054864.0876038,2026-07-03T14:01:04.087,-0.00830078125,0.00439453125,1.04833984375,0.0,0.0,0.0,0.2471923828125,0.5877685546875,-30.355224609375,1.0483819165113646,0.0,1.0420558520266934,0.006326064484671212,0.003561017444405645,0.0039872648357038255,0.8930977978986089,4.0,0,0
1783054864.0876038,2026-07-03T14:01:04.087,-0.00830078125,0.00439453125,1.03857421875,0.0,0.0,0.0,0.2471923828125,0.5877685546875,-30.355224609375,1.0386166871018587,0.0,1.0420585403838472,0.0034418532819884273,0.0035312264038013406,0.003986583152046306,0.8857776870874419,4.0,0,0
1783054864.0876038,2026-07-03T14:01:04.087,-0.00732421875,0.001953125,1.04345703125,0.0,0.0,0.0,0.2471923828125,0.5877685546875,-30.355224609375,1.0434845638257553,0.0,1.0420558520266934,0.0014287117990618992,0.00300559775261648,0.0039933012414715445,0.7526599099017403,4.0,0,0
1783054864.0876038,2026-07-03T14:01:04.087,-0.0078125,0.00537109375,1.05029296875,0.0,0.0,0.0,0.2471923828125,0.5877685546875,-30.355224609375,1.0503357577508299,0.0,1.0420585403838472,0.008277217366982725,0.004323502656208041,0.0039833294295696965,1.0853992200878781,4.0,0,0
1783054864.0876038,2026-07-03T14:01:04.087,-0.009765625,0.00439453125,1.0419921875,0.0,0.0,0.0,0.2471923828125,0.5877685546875,-30.355224609375,1.0420472149320217,0.0,1.0420620295075542,1.4814575532540175e-05,0.0032463306360391657,0.0039933012414715445,0.8129440880455295,4.0,0,0
1783054864.0876038,2026-07-03T14:01:04.087,-0.01123046875,0.00146484375,1.0419921875,0.0,0.0,0.0,0.2471923828125,0.5877685546875,-30.355224609375,1.042053735661742,0.0,1.0420585403838472,4.804722105067327e-06,0.002435949157555641,0.003999555686899117,0.6090549421614002,4.0,0,0
1783054864.1151175,2026-07-03T14:01:04.115,-0.0087890625,0.00390625,1.048828125,0.0,0.0,0.0,0.2471923828125,0.5877685546875,-30.355224609375,1.048872223962341,0.0,1.0420561380227946,0.006816085939546301,0.003530983353053306,0.0039933012414715445,0.8842266434555603,4.0,0,0
1783054864.1151175,2026-07-03T14:01:04.115,-0.01220703125,0.0029296875,1.04345703125,0.0,0.0,0.0,0.2471923828125,0.5877685546875,-30.355224609375,1.0435325441718861,0.0,1.0420585403838472,0.001474003788038969,0.0030167384617997214,0.003999555686899117,0.7542683982826651,4.0,0,0
1783054864.1151175,2026-07-03T14:01:04.115,-0.009765625,0.00244140625,1.03662109375,0.0,0.0,0.0,0.2471923828125,0.5877685546875,-30.355224609375,1.036669966722083,0.0,1.0420620295075542,0.00539206278547133,0.0036105695427176236,0.003981981012258494,0.9067269611790003,4.0,0,0
1783054864.1151175,2026-07-03T14:01:04.115,-0.013671875,0.0048828125,1.046875,0.0,0.0,0.0,0.2471923828125,0.5877685546875,-30.355224609375,1.046975657620045,0.0,1.0420585403838472,0.004917117236197921,0.003937206466087698,0.003977378872470682,0.9898997788063301,4.0,0,0
1783054864.1161227,2026-07-03T14:01:04.116,-0.009765625,0.0029296875,1.0400390625,0.0,0.0,0.0,0.2471923828125,0.5877685546875,-30.355224609375,1.0400890356245311,0.0,1.0420620295075542,0.0019729938830230775,0.003446153320321543,0.003990486537081585,0.8635922683357463,4.0,0,0
1783054864.1161227,2026-07-03T14:01:04.116,-0.00732421875,0.0048828125,1.04296875,0.0,0.0,0.0,0.2471923828125,0.5877685546875,-30.355224609375,1.0430058962032625,0.0,1.0420585403838472,0.0009473558194152965,0.0028214539450949812,0.0039945037853979445,0.7063340271221947,4.0,0,0
1783054864.1161227,2026-07-03T14:01:04.116,-0.0087890625,0.0048828125,1.04736328125,0.0,0.0,0.0,0.2471923828125,0.5877685546875,-30.355224609375,1.047411539170877,0.0,1.0420620295075542,0.005349509663322705,0.003453467874651912,0.003979398129867367,0.8678367335833813,4.0,0,0
1783054864.1161227,2026-07-03T14:01:04.116,-0.0087890625,0.00244140625,1.03564453125,0.0,0.0,0.0,0.2471923828125,0.5877685546875,-30.355224609375,1.0356847025963736,0.0,1.042065518631261,0.006380816034887493,0.004185304914710808,0.00397232697096951,1.0536154111425822,4.0,0,0
1783054864.163031,2026-07-03T14:01:04.163,-0.01123046875,0.00146484375,1.03857421875,0.0,0.0,0.0,0.2471923828125,0.5877685546875,-30.355224609375,1.0386359694559637,0.0,1.0420620295075542,0.003426060051590518,0.0039954936989307355,0.003984235548490225,1.0028256739099617,4.0,0,0
1783054864.163031,2026-07-03T14:01:04.163,-0.0087890625,0.0,1.0478515625,0.0,0.0,0.0,0.2471923828125,0.5877685546875,-30.355224609375,1.0478884218528803,0.0,1.0420585403838472,0.005829881469033182,0.004454090641456347,0.003993617858328282,1.1153021644691907,4.0,0,0
1783054864.163031,2026-07-03T14:01:04.163,-0.01220703125,0.0009765625,1.04052734375,0.0,0.0,0.0,0.24169921875,0.5877685546875,-30.355224609375,1.0405994034102102,0.0,1.0420620295075542,0.0014626260973440441,0.0037062245054282714,0.0039982790009859435,0.9269549484951766,4.0,0,0
1783054864.163031,2026-07-03T14:01:04.163,-0.015625,0.0,1.0478515625,0.0,0.0,0.0,0.24169921875,0.5877685546875,-30.355224609375,1.0479680518311096,0.0,1.0420585403838472,0.005909511447262483,0.004257046240886825,0.003992920327808292,1.0661485557923744,4.0,0,0
1783054864.163031,2026-07-03T14:01:04.163,-0.0126953125,0.0,1.04443359375,0.0,0.0,0.0,0.24169921875,0.5877685546875,-30.355224609375,1.0445107480122033,0.0,1.0420620295075542,0.0024487185046491167,0.0038049643068273978,0.003999610603274807,0.9513336882625434,4.0,0,0
1783054864.163031,2026-07-03T14:01:04.163,-0.01025390625,0.001953125,1.04541015625,0.0,0.0,0.0,0.24169921875,0.5877685546875,-30.355224609375,1.0454622671724212,0.0,1.042065518631261,0.0033967485411601217,0.0037029103654105788,0.004008106455775866,0.9238552933329689,4.0,0,0
1783054864.163031,2026-07-03T14:01:04.163,-0.0087890625,0.0029296875,1.03759765625,0.0,0.0,0.0,0.24169921875,0.5877685546875,-30.355224609375,1.037639015719807,0.0,1.0422922615758716,0.004653245856064636,0.003940494238074093,0.004021785591054301,0.9797872484398409,4.0,0,0
1783054864.163031,2026-07-03T14:01:04.163,-0.00927734375,0.00634765625,1.04638671875,0.0,0.0,0.0,0.24169921875,0.5877685546875,-30.355224609375,1.046447097097276,0.0,1.042065518631261,0.004381578466014835,0.004050765295059279,0.004037307985172981,1.003333238369656,4.0,0,0
1783054864.2078536,2026-07-03T14:01:04.207,-0.00830078125,0.0048828125,1.037109375,0.0,0.0,0.0,0.24169921875,0.5877685546875,-30.355224609375,1.037154087173242,0.0,1.0422922615758716,0.005138174402629536,0.004322617571951843,0.004037582159673352,1.0705955695775984,4.0,0,0
1783054864.2078536,2026-07-03T14:01:04.207,-0.00830078125,0.00634765625,1.03857421875,0.0,0.0,0.0,0.24169921875,0.5877685546875,-30.355224609375,1.0386267874272266,0.0,1.042065518631261,0.003438731204034484,0.0041016459799725034,0.004037856334173724,1.0157978988154945,4.0,0,0
1783054864.2078536,2026-07-03T14:01:04.207,-0.00634765625,0.01025390625,1.044921875,0.0,0.0,0.0,0.24169921875,0.5877685546875,-30.355224609375,1.0449914641693336,0.0,1.0420620295075542,0.0029294346617794176,0.003808593150424232,0.004045739915539425,0.9413835861755898,4.0,0,0
1783054864.2078536,2026-07-03T14:01:04.207,-0.0107421875,0.00537109375,1.03515625,0.0,0.0,0.0,0.24169921875,0.5877685546875,-30.355224609375,1.0352259198621425,0.0,1.042065518631261,0.006839598769118549,0.004566344555097811,0.004055586205316093,1.1259394632303001,4.0,0,0
1783054864.2078536,2026-07-03T14:01:04.207,-0.01123046875,0.0068359375,1.0419921875,0.0,0.0,0.0,0.24169921875,0.5877685546875,-30.355224609375,1.042075127944662,0.0,1.0420620295075542,1.309843710783909e-05,0.0034280330256003183,0.004053885936877693,0.8456165464390429,4.0,0,0
1783054864.2078536,2026-07-03T14:01:04.207,-0.01171875,0.00537109375,1.0439453125,0.0,0.0,0.0,0.24169921875,0.5877685546875,-30.355224609375,1.0440249006802262,0.0,1.042065518631261,0.0019593820489651748,0.0030608702814415327,0.004059187987713474,0.7540597505477222,4.0,0,0
1783054864.2078536,2026-07-03T14:01:04.207,-0.0146484375,0.0,1.0419921875,0.0,0.0,0.0,0.24169921875,0.5877685546875,-30.355224609375,1.042095147062986,0.0,1.0420703232879616,2.4823775024440664e-05,0.0023018586548372594,0.004042950054969317,0.5693512468718164,4.0,0,0
1783054864.2078536,2026-07-03T14:01:04.207,-0.01708984375,-0.0029296875,1.04296875,0.0,0.0,0.0,0.24169921875,0.5877685546875,-30.355224609375,1.0431128698778525,0.0,1.042075127944662,0.0010377419331903948,0.0019858294744255433,0.004055586205316093,0.48965288219555114,4.0,0,0
1783054864.2501404,2026-07-03T14:01:04.250,-0.01611328125,0.00146484375,1.05029296875,0.0,0.0,0.0,0.24169921875,0.5877685546875,-30.355224609375,1.0504175854418765,0.0,1.042085137503824,0.008332447938052434,0.003572484090332266,0.0040555356232105525,0.8808908174511656,4.0,0,0
1783054864.2501404,2026-07-03T14:01:04.250,-0.0126953125,0.0009765625,1.041015625,0.0,0.0,0.0,0.24169921875,0.5877685546875,-30.355224609375,1.041093490579943,0.0,1.042095147062986,0.0010016564830430674,0.002929777188509966,0.004055586205316093,0.7224053540446488,4.0,0,0
1783054864.2501404,2026-07-03T14:01:04.250,-0.009765625,0.005859375,1.04248046875,0.0,0.0,0.0,0.24169921875,0.5877685546875,-30.355224609375,1.0425426741540371,0.0,1.042085137503824,0.0004575366502130862,0.002311717053935746,0.004045739915539425,0.571395369498813,4.0,0,0
1783054864.2501404,2026-07-03T14:01:04.250,-0.00927734375,0.00390625,1.0478515625,0.0,0.0,0.0,0.24169921875,0.5877685546875,-30.355224609375,1.0478999116947236,0.0,1.042095147062986,0.0058047646317376245,0.0031849789483862157,0.004049766173656292,0.7864599613440616,4.0,0,0
1783054864.2501404,2026-07-03T14:01:04.250,-0.0068359375,0.0087890625,1.0361328125,0.0,0.0,0.0,0.24169921875,0.5877685546875,-30.355224609375,1.0361926378817277,0.0,1.042307075791734,0.006114437910006432,0.00391734368879127,0.004042428922945653,0.9690569119361941,4.0,0,0
1783054864.2501404,2026-07-03T14:01:04.250,-0.00634765625,0.0068359375,1.04345703125,0.0,0.0,0.0,0.24169921875,0.5877685546875,-30.355224609375,1.0434987296812754,0.0,1.042095147062986,0.001403582618289434,0.0032889034211658107,0.004049766173656292,0.8121218065774044,4.0,0,0
1783054864.2501404,2026-07-03T14:01:04.250,-0.00634765625,0.00927734375,1.0439453125,0.0,0.0,0.0,0.24169921875,0.5877685546875,-30.355224609375,1.0440058320419703,0.0,1.042307075791734,0.0016987562502361886,0.0028913666284334054,0.004045739915539425,0.7146694272975516,4.0,0,0
1783054864.2501404,2026-07-03T14:01:04.250,-0.00732421875,0.00341796875,1.0380859375,0.0,0.0,0.0,0.24169921875,0.5877685546875,-30.355224609375,1.03811740199552,0.0,1.0425190045204822,0.004401602524962245,0.0032689256025656152,0.004037856334173724,0.8095695666286115,4.0,0,0
1783054864.282727,2026-07-03T14:01:04.282,-0.00537109375,0.005859375,1.0400390625,0.0,0.0,0.0,0.24169921875,0.5877685546875,-30.355224609375,1.040069436359583,0.0,1.042307075791734,0.0022376394321510507,0.0030111040599619743,0.004035984274647598,0.7460643687034406,4.0,0,0
1783054864.282727,2026-07-03T14:01:04.282,-0.0087890625,0.0029296875,1.0458984375,0.0,0.0,0.0,0.24169921875,0.5877685546875,-30.355224609375,1.045939468732975,0.0,1.042095147062986,0.003844321669989048,0.003219408462468743,0.004035973759321359,0.7976782443228967,4.0,0,0
1783054864.282727,2026-07-03T14:01:04.282,-0.00927734375,0.00390625,1.04150390625,0.0,0.0,0.0,0.24169921875,0.5877685546875,-30.355224609375,1.0415525501049512,0.0,1.042307075791734,0.0007545256867829142,0.0026031877685472856,0.004030325101346844,0.6459001949191044,4.0,0,0
1783054864.282727,2026-07-03T14:01:04.282,-0.01416015625,0.00146484375,1.037109375,0.0,0.0,0.0,0.24169921875,0.5877685546875,-30.355224609375,1.0372070726258702,0.0,1.042095147062986,0.004888074437115808,0.0031744094356894164,0.004037307985172981,0.7862688324367225,4.0,0,0
1783054864.282727,2026-07-03T14:01:04.282,-0.0146484375,0.0029296875,1.05322265625,0.0,0.0,0.0,0.24169921875,0.5877685546875,-30.355224609375,1.053328592334009,0.0,1.042085137503824,0.011243454830184962,0.0051916707843133025,0.00402363943945835,1.2902922496982456,4.0,0,0
1783054864.282727,2026-07-03T14:01:04.282,-0.01416015625,0.001953125,1.0419921875,0.0,0.0,0.0,0.24169921875,0.5877685546875,-30.355224609375,1.042090228115265,0.0,1.042095147062986,4.918947720922162e-06,0.0038949828251652074,0.004037307985172981,0.9647475098430779,4.0,0,0
1783054864.282727,2026-07-03T14:01:04.282,-0.01220703125,0.0009765625,1.03759765625,0.0,0.0,0.0,0.24169921875,0.5877685546875,-30.355224609375,1.0376699193586312,0.0,1.0420926875891254,0.004422768230494256,0.00402692917649747,0.004037582159673352,0.997361543925401,4.0,0,0
1783054864.282727,2026-07-03T14:01:04.282,-0.0107421875,0.0068359375,1.05078125,0.0,0.0,0.0,0.24169921875,0.5877685546875,-30.355224609375,1.0508583919755086,0.0,1.042090228115265,0.008768163860243483,0.0052122378474339735,0.004037856334173724,1.2908428175913709,4.0,0,0
1783054864.3399808,2026-07-03T14:01:04.339,-0.0068359375,0.00537109375,1.03759765625,0.0,0.0,0.0,0.24169921875,0.5877685546875,-30.355224609375,1.0376340756476092,0.0,1.0420926875891254,0.0044586119415161996,0.00502383137095453,0.004045739915539425,1.241758362088062,4.0,0,0
1783054864.3399808,2026-07-03T14:01:04.339,-0.0068359375,0.0078125,1.04052734375,0.0,0.0,0.0,0.24169921875,0.5877685546875,-30.355224609375,1.0405791263950976,0.0,1.042090228115265,0.0015111017201674404,0.004145648958257758,0.004055586205316093,1.0222070863204955,4.0,0,0
1783054864.3399808,2026-07-03T14:01:04.339,-0.00732421875,0.009765625,1.04833984375,0.0,0.0,0.0,0.24169921875,0.5877685546875,-30.355224609375,1.0484109116208744,0.0,1.0420826780299635,0.006328233590910948,0.004691295116421055,0.0040561202357730225,1.1565966597947706,4.0,0,0
1783054864.3399808,2026-07-03T14:01:04.339,-0.0078125,0.0068359375,1.0380859375,0.0,0.0,0.0,0.24169921875,0.5877685546875,-30.355224609375,1.0381378419232234,0.0,1.042090228115265,0.003952386192041635,0.0045065678853262,0.004056654266229952,1.1109075581918828,4.0,0,0
1783054864.3399808,2026-07-03T14:01:04.339,-0.00732421875,0.00830078125,1.03955078125,0.0,0.0,0.0,0.24169921875,0.5877685546875,-30.355224609375,1.0396097219375853,0.0,1.0420826780299635,0.002472956092378187,0.003998164937089196,0.004062760293178396,0.9841006233624812,4.0,0,0
1783054864.3399808,2026-07-03T14:01:04.339,-0.00927734375,0.005859375,1.05029296875,0.0,0.0,0.0,0.24169921875,0.5877685546875,-30.355224609375,1.0503502851849638,0.0,1.042075127944662,0.0082751572403017,0.005067413012892322,0.004063380998405218,1.247092757209123,4.0,0,0
1783054864.3399808,2026-07-03T14:01:04.339,-0.01025390625,0.001953125,1.0380859375,0.0,0.0,0.0,0.24169921875,0.5877685546875,-30.355224609375,1.038138416072685,0.0,1.0420826780299635,0.003944261957278483,0.004786625248988863,0.004065015554492059,1.1775170807647677,4.0,0,0
1783054864.3399808,2026-07-03T14:01:04.339,-0.01171875,0.0029296875,1.0390625,0.0,0.0,0.0,0.24169921875,0.5877685546875,-30.355224609375,1.039132711003104,0.0,1.042075127944662,0.002942416941558168,0.004325573172131189,0.004068549769988445,1.0631732230581694,4.0,0,0
1783054864.3712478,2026-07-03T14:01:04.371,-0.0126953125,0.0029296875,1.04833984375,0.0,0.0,0.0,0.24169921875,0.5877685546875,-30.355224609375,1.0484208038865381,0.0,1.0420703232879616,0.006350480598576569,0.004831800028742533,0.004083579285140763,1.1832266968158007,4.0,0,0
1783054864.3712478,2026-07-03T14:01:04.371,-0.01171875,-0.0009765625,1.037109375,0.0,0.0,0.0,0.24169921875,0.5877685546875,-30.355224609375,1.0371760402596897,0.0,1.042075127944662,0.004899087684972381,0.004848621942799995,0.004085856159124617,1.1866844435949988,4.0,0,0
1783054864.3712478,2026-07-03T14:01:04.371,-0.01318359375,0.00048828125,1.04638671875,0.0,0.0,0.0,0.24169921875,0.5877685546875,-30.355224609375,1.046469880473937,0.0,1.0420703232879616,0.0043995571859754,0.004736355753593846,0.004083310629294604,1.1599303074358702,4.0,0,0
1783054864.3712478,2026-07-03T14:01:04.371,-0.0126953125,0.0048828125,1.04931640625,0.0,0.0,0.0,0.24169921875,0.5877685546875,-30.355224609375,1.0494045612835872,0.0,1.042075127944662,0.0073294333389251065,0.005384625149926662,0.004087023927512639,1.3174929350618563,4.0,0,0
1783054864.3712478,2026-07-03T14:01:04.371,-0.0087890625,0.00537109375,1.03662109375,0.0,0.0,0.0,0.24169921875,0.5877685546875,-30.355224609375,1.0366722665698869,0.0,1.0420826780299635,0.005410411460076592,0.005391071727464144,0.00411042505543038,1.3115606426984654,4.0,0,0
1783054864.3712478,2026-07-03T14:01:04.371,-0.00927734375,0.00439453125,1.0458984375,0.0,0.0,0.0,0.24169921875,0.5877685546875,-30.355224609375,1.0459488145109703,0.0,1.042075127944662,0.0038736865663082654,0.005011725437175174,0.004133826183348121,1.2123696582510914,4.0,0,0
1783054864.3712478,2026-07-03T14:01:04.371,-0.005859375,0.0068359375,1.0419921875,0.0,0.0,0.0,0.24169921875,0.582275390625,-30.355224609375,1.0420310845305574,0.0,1.0420826780299635,5.159349940608848e-05,0.003771692452732903,0.004147151733299268,0.9094657478886918,4.0,0,0
1783054864.3712478,2026-07-03T14:01:04.371,-0.00537109375,0.00537109375,1.0400390625,0.0,0.0,0.0,0.24169921875,0.582275390625,-30.355224609375,1.0400668001729607,0.0,1.042075127944662,0.002008327771701346,0.0033308512824750136,0.004145901604765727,0.8034081847591824,4.0,0,0
1783054864.401319,2026-07-03T14:01:04.401,-0.00927734375,0.00732421875,1.0439453125,0.0,0.0,0.0,0.24169921875,0.582275390625,-30.355224609375,1.0440122263546898,0.0,1.0420703232879616,0.0019419030667282566,0.0029836142285383244,0.004135766589852165,0.7214174600324761,4.0,0,0
1783054864.401319,2026-07-03T14:01:04.401,-0.0078125,0.0087890625,1.04345703125,0.0,0.0,0.0,0.24169921875,0.582275390625,-30.355224609375,1.0435232909911223,0.0,1.042075127944662,0.0014481630464602269,0.0025997514330188,0.004115196036518534,0.6317442498360774,4.0,0,0
1783054864.401319,2026-07-03T14:01:04.401,-0.00927734375,0.00244140625,1.04248046875,0.0,0.0,0.0,0.24169921875,0.582275390625,-30.355224609375,1.0425246075257661,0.0,1.0420826780299635,0.00044192949580268426,0.002060295948714771,0.004124511109933326,0.49952488762918523,4.0,0,0
1783054864.401319,2026-07-03T14:01:04.401,-0.00927734375,0.0048828125,1.0361328125,0.0,0.0,0.0,0.24169921875,0.582275390625,-30.355224609375,1.0361858501755976,0.0,1.042090228115265,0.005904377939667471,0.0030213164464529462,0.004133826183348121,0.730876508214935,4.0,0,0
1783054864.401319,2026-07-03T14:01:04.401,-0.01171875,0.00390625,1.0419921875,0.0,0.0,0.0,0.24169921875,0.582275390625,-30.355224609375,1.0420654042341393,0.0,1.0420826780299635,1.727379582416866e-05,0.0022703057837957516,0.00411042505543038,0.5523287137412703,4.0,0,0
1783054864.401319,2026-07-03T14:01:04.401,-0.0166015625,0.001953125,1.037109375,0.0,0.0,0.0,0.24169921875,0.582275390625,-30.355224609375,1.0372440803820466,0.0,1.042075127944662,0.0048310475626154314,0.002910491228500672,0.004130060913277939,0.7047090320492825,4.0,0,0
1783054864.401319,2026-07-03T14:01:04.401,-0.0126953125,0.0,1.04541015625,0.0,0.0,0.0,0.24169921875,0.582275390625,-30.355224609375,1.0454872384444116,0.0,1.0420703232879616,0.00341691515645004,0.003037097210488014,0.004097342751951272,0.7412358190052958,4.0,0,0
1783054864.401319,2026-07-03T14:01:04.401,-0.0126953125,0.00244140625,1.04833984375,0.0,0.0,0.0,0.24169921875,0.582275390625,-30.355224609375,1.0484195531454594,0.0,1.042075127944662,0.006344425200797366,0.0038639292080653517,0.004088554509030769,0.9450599715695934,4.0,0,0
1783054864.4628263,2026-07-03T14:01:04.462,-0.01123046875,0.00390625,1.0380859375,0.0,0.0,0.0,0.24169921875,0.582275390625,-30.355224609375,1.0381540328162584,0.0,1.0420826780299635,0.003928645213705062,0.0038801082094752793,0.004097342751951272,0.9469816035349887,4.0,0,0
1783054864.4628263,2026-07-03T14:01:04.462,-0.0078125,0.0068359375,1.04638671875,0.0,0.0,0.0,0.24169921875,0.582275390625,-30.355224609375,1.0464382114459245,0.0,1.042075127944662,0.004363083501262466,0.004000852032422076,0.004130060913277939,0.9687150181149962,4.0,0,0
1783054864.4628263,2026-07-03T14:01:04.462,-0.005859375,0.0068359375,1.04052734375,0.0,0.0,0.0,0.24169921875,0.582275390625,-30.355224609375,1.0405662955373507,0.0,1.0420826780299635,0.0015163824926127667,0.003379734647469749,0.004132612410272206,0.8178203789614844,4.0,0,0
1783054864.4628263,2026-07-03T14:01:04.462,-0.00830078125,0.00341796875,1.04248046875,0.0,0.0,0.0,0.24169921875,0.582275390625,-30.355224609375,1.0425191188678298,0.0,1.042075127944662,0.00044399092316771416,0.0026457987163942404,0.004132915301205869,0.6401773381666617,4.0,0,0
1783054864.4628263,2026-07-03T14:01:04.462,-0.00732421875,0.0068359375,1.044921875,0.0,0.0,0.0,0.24169921875,0.582275390625,-30.355224609375,1.0449699034303894,0.0,1.0420826780299635,0.0028872254004259634,0.002706155387402171,0.004132612410272206,0.6548292263449702,4.0,0,0
1783054864.4628263,2026-07-03T14:01:04.462,-0.005859375,0.00634765625,1.0478515625,0.0,0.0,0.0,0.24169921875,0.582275390625,-30.355224609375,1.0478871704763593,0.0,1.042090228115265,0.005796942361094182,0.0034788521308251738,0.004133647243256893,0.8415938579423127,4.0,0,0
1783054864.4628263,2026-07-03T14:01:04.462,-0.009765625,0.00439453125,1.04150390625,0.0,0.0,0.0,0.24169921875,0.582275390625,-30.355224609375,1.0415589594787982,0.0,1.0420926875891254,0.0005337281103272584,0.0027425711257006947,0.004132612410272206,0.6636410225366496,4.0,0,0
1783054864.4628263,2026-07-03T14:01:04.462,-0.01123046875,0.00537109375,1.0400390625,0.0,0.0,0.0,0.24169921875,0.582275390625,-30.355224609375,1.0401135628393157,0.0,1.042090228115265,0.0019766652759494185,0.0025510946632628755,0.004133647243256893,0.6171534514524449,4.0,0,0
1783054864.4925613,2026-07-03T14:01:04.492,-0.01171875,0.00537109375,1.04541015625,0.0,0.0,0.0,0.24169921875,0.582275390625,-30.355224609375,1.0454896329186067,0.0,1.0420826780299635,0.0034069548886432877,0.0027650597196079785,0.0041215584103001185,0.6708772372842912,4.0,0,0
1783054864.4925613,2026-07-03T14:01:04.492,-0.01025390625,-0.001953125,1.04052734375,0.0,0.0,0.0,0.24169921875,0.582275390625,-30.355224609375,1.040579699197558,0.0,1.042090228115265,0.001510528917707088,0.002451427019132756,0.004098895682422391,0.5980701167012858,4.0,0,0
1783054864.4925613,2026-07-03T14:01:04.492,-0.01171875,0.0029296875,1.046875,0.0,0.0,0.0,0.24169921875,0.582275390625,-30.355224609375,1.0469446870754013,0.0,1.0420826780299635,0.004862009045437876,0.003054072525709036,0.004092034412115417,0.7463457581555878,4.0,0,0
1783054864.4925613,2026-07-03T14:01:04.492,-0.01171875,0.00341796875,1.04345703125,0.0,0.0,0.0,0.24169921875,0.582275390625,-30.355224609375,1.0435284316572317,0.0,1.042090228115265,0.001438203541966665,0.002650105279773443,0.0040900240837047006,0.6479436857919442,4.0,0,0
1783054864.4925613,2026-07-03T14:01:04.492,-0.0107421875,0.00244140625,1.0361328125,0.0,0.0,0.0,0.24169921875,0.582275390625,-30.355224609375,1.036191372380567,0.0,1.0420926875891254,0.005901315208558522,0.0034629077619697125,0.004091875645100633,0.8462886124401144,4.0,0,0
1783054864.4925613,2026-07-03T14:01:04.492,-0.00927734375,0.005859375,1.052734375,0.0,0.0,0.0,0.24169921875,0.582275390625,-30.355224609375,1.0527915585191054,0.0,1.042090228115265,0.010701330403840359,0.0052725134224373745,0.0040900240837047006,1.2891154952959563,4.0,0,0
1783054864.4925613,2026-07-03T14:01:04.492,-0.0078125,0.00732421875,1.03955078125,0.0,0.0,0.0,0.24169921875,0.582275390625,-30.355224609375,1.0396059379082216,0.0,1.0420926875891254,0.002486749680903788,0.0045760724870539775,0.004092034412115417,1.1182878798637308,4.0,0,0
1783054864.4925613,2026-07-03T14:01:04.492,-0.00830078125,0.00390625,1.041015625,0.0,0.0,0.0,0.24169921875,0.582275390625,-30.355224609375,1.041056047123575,0.0,1.042090228115265,0.001034180991690059,0.003690599613212998,0.004104150710931694,0.8992358890190915,4.0,0,0
1783054864.5210314,2026-07-03T14:01:04.521,-0.00634765625,0.005859375,1.0439453125,0.0,0.0,0.0,0.24169921875,0.582275390625,-30.355224609375,1.0439810537102585,0.0,1.0420826780299635,0.0018983756802950502,0.003242543629983511,0.0041215584103001185,0.786727569329146,4.0,0,0
1783054864.5210314,2026-07-03T14:01:04.521,-0.0078125,0.0068359375,1.0458984375,0.0,0.0,0.0,0.24169921875,0.582275390625,-30.355224609375,1.0459499542342814,0.0,1.042090228115265,0.0038597261190163046,0.0033968392522417097,0.004098895682422391,0.8287205909651802,4.0,0,0
1783054864.5210314,2026-07-03T14:01:04.521,-0.01171875,0.00439453125,1.04248046875,0.0,0.0,0.0,0.24169921875,0.582275390625,-30.355224609375,1.0425555950315981,0.0,1.0420926875891254,0.000462907442472682,0.002663356299799453,0.004114478297850166,0.6473132453247035,4.0,0,0
1783054864.5210314,2026-07-03T14:01:04.521,-0.0087890625,0.0048828125,1.04736328125,0.0,0.0,0.0,0.24169921875,0.582275390625,-30.355224609375,1.047411539170877,0.0,1.042095147062986,0.0053163921078909215,0.00332661525182232,0.004098895682422391,0.8115881714404443,4.0,0,0
1783054864.5210314,2026-07-03T14:01:04.521,-0.0107421875,0.00390625,1.0458984375,0.0,0.0,0.0,0.24169921875,0.582275390625,-30.355224609375,1.0459608955148796,0.0,1.042307075791734,0.0036538197231454905,0.003408416369653113,0.004114478297850166,0.8283957583234857,4.0,0,0
1783054864.5210314,2026-07-03T14:01:04.521,-0.01171875,0.0009765625,1.0380859375,0.0,0.0,0.0,0.24169921875,0.582275390625,-30.355224609375,1.0381525400494538,0.0,1.0425190045204822,0.004366464471028397,0.003647928394996934,0.004130060913277939,0.8832626132144993,4.0,0,0
1783054864.5210314,2026-07-03T14:01:04.521,-0.0126953125,0.00244140625,1.04931640625,0.0,0.0,0.0,0.24169921875,0.582275390625,-30.355224609375,1.049396041468313,0.0,1.042307075791734,0.007088965676578907,0.004508187715392427,0.004119725351844863,1.0942932672377315,4.0,0,0
1783054864.5210314,2026-07-03T14:01:04.521,-0.01220703125,0.0029296875,1.04541015625,0.0,0.0,0.0,0.24169921875,0.582275390625,-30.355224609375,1.0454855281023432,0.0,1.0425190045204822,0.0029665235818610025,0.004122771682009571,0.004132915301205869,0.9975456503564594,4.0,0,0
1783054864.5807045,2026-07-03T14:01:04.580,-0.009765625,0.00341796875,1.03564453125,0.0,0.0,0.0,0.24169921875,0.582275390625,-30.355224609375,1.0356962127236196,0.0,1.042519061694156,0.0068228489705364215,0.004797791004141284,0.004138286322502507,1.159366614642546,4.0,0,0
1783054864.5807045,2026-07-03T14:01:04.580,-0.00927734375,0.00341796875,1.04931640625,0.0,0.0,0.0,0.24169921875,0.582275390625,-30.355224609375,1.049362983930178,0.0,1.0425190045204822,0.006843979409695722,0.005309338105529893,0.004145901604765727,1.2806232785232512,4.0,0,0
1783054864.5807045,2026-07-03T14:01:04.580,-0.0068359375,0.00439453125,1.03857421875,0.0,0.0,0.0,0.24169921875,0.582275390625,-30.355224609375,1.0386060127876133,0.0,1.042519061694156,0.003913048906542649,0.004960265805783082,0.004148088948682991,1.195795429449013,4.0,0,0
1783054864.5807045,2026-07-03T14:01:04.580,-0.00927734375,0.005859375,1.0390625,0.0,0.0,0.0,0.24169921875,0.582275390625,-30.355224609375,1.0391204358921522,0.0,1.0425190045204822,0.00339856862832999,0.004569841511419809,0.004151235739314578,1.1008388341189095,4.0,0,0
1783054864.5807045,2026-07-03T14:01:04.580,-0.00830078125,0.005859375,1.04638671875,0.0,0.0,0.0,0.24169921875,0.582275390625,-30.355224609375,1.0464360469809622,0.0,1.042307075791734,0.004128971189228059,0.004459623930871872,0.0041540681908974015,1.0735557833749623,4.0,0,0
1783054864.5807045,2026-07-03T14:01:04.580,-0.005859375,0.0068359375,1.04443359375,0.0,0.0,0.0,0.24169921875,0.582275390625,-30.355224609375,1.0444723998605394,0.0,1.0425190045204822,0.001953395340057229,0.0038330667831682113,0.004156900642480225,0.9220972818058991,4.0,0,0
1783054864.5807045,2026-07-03T14:01:04.580,-0.009765625,0.00341796875,1.04296875,0.0,0.0,0.0,0.24169921875,0.582275390625,-30.355224609375,1.0430200685598428,0.0,1.042519061694156,0.0005010068656867706,0.0030000518037978513,0.004153638945993043,0.7222707228060733,4.0,0,0
1783054864.5807045,2026-07-03T14:01:04.580,-0.01220703125,0.00390625,1.04833984375,0.0,0.0,0.0,0.24169921875,0.582275390625,-30.355224609375,1.0484181886989443,0.0,1.0425191188678298,0.005899069831114545,0.0037248063106270247,0.004151133408297019,0.8972986276909629,4.0,0,0
1783054864.6111903,2026-07-03T14:01:04.611,-0.01171875,0.00390625,1.04638671875,0.0,0.0,0.0,0.24169921875,0.582275390625,-30.355224609375,1.046459628015824,0.0,1.0425218631967978,0.0039377648190261905,0.003778045937726816,0.00414874941466345,0.910646934802471,4.0,0,0
1783054864.6111903,2026-07-03T14:01:04.611,-0.01123046875,0.00341796875,1.03759765625,0.0,0.0,0.0,0.24169921875,0.582275390625,-30.355224609375,1.037664060375136,0.0,1.0425246075257661,0.004860547150630223,0.004048671240952668,0.004146365421029881,0.976438598590052,4.0,0,0
1783054864.6111903,2026-07-03T14:01:04.611,-0.013671875,-0.0009765625,1.04833984375,0.0,0.0,0.0,0.24169921875,0.582275390625,-30.355224609375,1.0484294453295875,0.0,1.0425218631967978,0.005907582132789635,0.0045133989639119096,0.004148913772915193,1.087850751051067,4.0,0,0
1783054864.6111903,2026-07-03T14:01:04.611,-0.01171875,0.00146484375,1.0439453125,0.0,0.0,0.0,0.24169921875,0.582275390625,-30.355224609375,1.0440121121708776,0.0,1.0425246075257661,0.0014875046451114926,0.003756925384211805,0.004151093260752714,0.905044803433437,4.0,0,0
1783054864.6121948,2026-07-03T14:01:04.612,-0.00927734375,0.00146484375,1.03515625,0.0,0.0,0.0,0.24169921875,0.582275390625,-30.355224609375,1.0351988585717866,0.0,1.042525236432453,0.0073263778606664776,0.004649288503325473,0.004150707587128252,1.1201194990809202,4.0,0,0
1783054864.6121948,2026-07-03T14:01:04.612,-0.0107421875,0.0068359375,1.04833984375,0.0,0.0,0.0,0.24169921875,0.582275390625,-30.355224609375,1.0484171653628929,0.0,1.0425246075257661,0.005892557837126722,0.004960105836775785,0.004152223743334917,1.1945661273041144,4.0,0,0
1783054864.6121948,2026-07-03T14:01:04.612,-0.01025390625,0.00634765625,1.037109375,0.0,0.0,0.0,0.24169921875,0.582275390625,-30.355224609375,1.0371794883462278,0.0,1.042525236432453,0.005345748086225344,0.005056516399138174,0.004155290155968307,1.2168864770792054,4.0,0,0
1783054864.6121948,2026-07-03T14:01:04.612,-0.0087890625,0.00537109375,1.0390625,0.0,0.0,0.0,0.24169921875,0.582275390625,-30.355224609375,1.0391135525889124,0.0,1.0425246075257661,0.0034110549368537857,0.004645151033567077,0.004158356568601697,1.1170641470818052,4.0,0,0
1783054864.6453125,2026-07-03T14:01:04.645,-0.01025390625,0.0048828125,1.04443359375,0.0,0.0,0.0,0.24169921875,0.582275390625,-30.355224609375,1.0444953404418968,0.0,1.0425218631967978,0.001973477245098998,0.003977232586450058,0.004163118860577078,0.9553492753023983,4.0,0,0
1783054864.6453125,2026-07-03T14:01:04.645,-0.0087890625,0.00732421875,1.04541015625,0.0,0.0,0.0,0.24169921875,0.582275390625,-30.355224609375,1.0454727574597897,0.0,1.0425246075257661,0.0029481499340235917,0.003719961923343441,0.004165671195677672,0.8930042119510772,4.0,0,0
1783054864.6453125,2026-07-03T14:01:04.645,-0.01171875,0.0029296875,1.041015625,0.0,0.0,0.0,0.24169921875,0.582275390625,-30.355224609375,1.0410857042840185,0.0,1.042525236432453,0.001439532148434619,0.0031498544796162357,0.004166118447460236,0.7560645524940514,4.0,0,0
1783054864.6453125,2026-07-03T14:01:04.645,-0.01123046875,0.0029296875,1.04736328125,0.0,0.0,0.0,0.24169921875,0.582275390625,-30.355224609375,1.0474275867132576,0.0,1.0425246075257661,0.004902979187491496,0.0035881356565850508,0.00416150899610355,0.8622198486041115,4.0,0,0
1783054864.6453125,2026-07-03T14:01:04.645,-0.01318359375,0.00244140625,1.04248046875,0.0,0.0,0.0,0.24169921875,0.582275390625,-30.355224609375,1.042566686276644,0.0,1.042525236432453,4.144984419096609e-05,0.0027014642034865295,0.004160609397898007,0.6492953183375838,4.0,0,0
1783054864.6453125,2026-07-03T14:01:04.645,-0.01318359375,0.0029296875,1.0390625,0.0,0.0,0.0,0.24169921875,0.582275390625,-30.355224609375,1.0391502630126515,0.0,1.0425258653391403,0.0033756023264888135,0.0028699987342371003,0.00416150899610355,0.6896533773985111,4.0,0,0
1783054864.6453125,2026-07-03T14:01:04.645,-0.0107421875,0.0029296875,1.04638671875,0.0,0.0,0.0,0.24169921875,0.582275390625,-30.355224609375,1.0464459579154217,0.0,1.042525236432453,0.0039207214829686254,0.0031326794214199816,0.004159618798181432,0.7531169497526014,4.0,0,0
1783054864.6453125,2026-07-03T14:01:04.645,-0.0126953125,0.0048828125,1.0458984375,0.0,0.0,0.0,0.24169921875,0.582275390625,-30.355224609375,1.0459868805976125,0.0,1.0425258653391403,0.0034610152584722,0.003214763380683036,0.004152193507307481,0.7742325532336936,4.0,0,0
1783054864.7007716,2026-07-03T14:01:04.700,-0.00830078125,0.00537109375,1.0390625,0.0,0.0,0.0,0.24169921875,0.582275390625,-30.355224609375,1.0391095373076322,0.0,1.0425280950930982,0.003418557785465959,0.003265711981878767,0.004149557159947121,0.7870025296676194,4.0,0,0
1783054864.7007716,2026-07-03T14:01:04.700,-0.009765625,0.0087890625,1.0458984375,0.0,0.0,0.0,0.24169921875,0.582275390625,-30.355224609375,1.0459809542320602,0.0,1.0425258653391403,0.0034550888929198997,0.00331305620963905,0.004146827924202434,0.7989374698435927,4.0,0,0
1783054864.7007716,2026-07-03T14:01:04.700,-0.0087890625,0.0078125,1.03759765625,0.0,0.0,0.0,0.24169921875,0.582275390625,-30.355224609375,1.0376642901398179,0.0,1.0425280950930982,0.004863804953280315,0.003700743395549366,0.004145818055798659,0.8926449124734798,4.0,0,0
1783054864.7007716,2026-07-03T14:01:04.700,-0.01123046875,0.0029296875,1.04248046875,0.0,0.0,0.0,0.24169921875,0.582275390625,-30.355224609375,1.0425450753911851,0.0,1.0425258653391403,1.921005204486015e-05,0.0027803600596732394,0.004146456509151711,0.6705388211685476,4.0,0,0
1783054864.7007716,2026-07-03T14:01:04.700,-0.0078125,0.0048828125,1.04443359375,0.0,0.0,0.0,0.24169921875,0.582275390625,-30.355224609375,1.0444742259949262,0.0,1.0425280950930982,0.001946130901828047,0.0025718027702119413,0.004145818055798659,0.6203366224947621,4.0,0,0
1783054864.7007716,2026-07-03T14:01:04.700,-0.0087890625,0.00341796875,1.04296875,0.0,0.0,0.0,0.24169921875,0.582275390625,-30.355224609375,1.0430113822996216,0.0,1.0425303248470559,0.0004810574525657696,0.0020491164408003985,0.004147009569400924,0.49411905290018737,4.0,0,0
1783054864.7007716,2026-07-03T14:01:04.700,-0.00927734375,0.00146484375,1.03662109375,0.0,0.0,0.0,0.24169921875,0.582275390625,-30.355224609375,1.0366636421143136,0.0,1.0425328976282324,0.005869255513918814,0.0030041512090800025,0.004146907858677203,0.72443162748214,4.0,0,0
1783054864.7007716,2026-07-03T14:01:04.700,-0.00927734375,0.005859375,1.05078125,0.0,0.0,0.0,0.24169921875,0.5767822265625,-30.355224609375,1.050838539802385,0.0,1.0425303248470559,0.008308214955329074,0.00433016714564227,0.00414499315048061,1.044674137794459,4.0,0,0
1783054864.734498,2026-07-03T14:01:04.734,-0.0107421875,0.001953125,1.04443359375,0.0,0.0,0.0,0.24169921875,0.5767822265625,-30.355224609375,1.0444906610607347,0.0,1.0425328976282324,0.001957763432502313,0.003737066217357281,0.004146907858677203,0.9011693398341735,4.0,0,0
1783054864.734498,2026-07-03T14:01:04.734,-0.0126953125,0.00390625,1.041015625,0.0,0.0,0.0,0.24169921875,0.5767822265625,-30.355224609375,1.0411003607926932,0.0,1.042535470409409,0.0014351096167157795,0.0031615770671969056,0.004147009569400924,0.7623751559496946,4.0,0,0
1783054864.734498,2026-07-03T14:01:04.734,-0.01220703125,0.00341796875,1.0478515625,0.0,0.0,0.0,0.24169921875,0.5767822265625,-30.355224609375,1.0479282375983605,0.0,1.0425328976282324,0.005395339970128088,0.003720017792929701,0.004144866013001308,0.897500131792204,4.0,0,0
1783054864.734498,2026-07-03T14:01:04.734,-0.009765625,0.00439453125,1.0390625,0.0,0.0,0.0,0.24169921875,0.5767822265625,-30.355224609375,1.0391176825763278,0.0,1.042535470409409,0.0034177878330812206,0.003644460302967581,0.004145179602445608,0.8792044380459153,4.0,0,0
1783054864.734498,2026-07-03T14:01:04.734,-0.01171875,0.00390625,1.03955078125,0.0,0.0,0.0,0.24169921875,0.5767822265625,-30.355224609375,1.0396241699230113,0.0,1.0425328976282324,0.0029087277052211036,0.003460527153530962,0.004141802773875181,0.8355122980163541,4.0,0,0
1783054864.734498,2026-07-03T14:01:04.734,-0.01025390625,0.0078125,1.0478515625,0.0,0.0,0.0,0.24169921875,0.5767822265625,-30.355224609375,1.0479308540086627,0.0,1.0425303248470559,0.005400529161606826,0.003945527655549928,0.00414244468067573,0.952463571560917,4.0,0,0
1783054864.734498,2026-07-03T14:01:04.734,-0.0087890625,0.0029296875,1.03759765625,0.0,0.0,0.0,0.24169921875,0.5767822265625,-30.355224609375,1.037639015719807,0.0,1.0425328976282324,0.004893881908425435,0.004182616218768804,0.004144435476900002,1.0092125313764955,4.0,0,0
1783054864.734498,2026-07-03T14:01:04.734,-0.00927734375,0.0068359375,1.03857421875,0.0,0.0,0.0,0.24169921875,0.5767822265625,-30.355224609375,1.0386381501758601,0.0,1.0425303248470559,0.003892174671195736,0.004110005831875537,0.004146426273124275,0.991216426182517,4.0,0,0
1783054864.7679205,2026-07-03T14:01:04.767,-0.00732421875,0.0048828125,1.04638671875,0.0,0.0,0.0,0.24169921875,0.5767822265625,-30.355224609375,1.0464237436213877,0.0,1.0425280950930982,0.003895648528289497,0.004056416505979027,0.004150295698675628,0.9773801195113501,4.0,0,0
1783054864.7679205,2026-07-03T14:01:04.767,-0.0087890625,0.0048828125,1.0400390625,0.0,0.0,0.0,0.24169921875,0.5767822265625,-30.355224609375,1.0400876602495666,0.0,1.0425303248470559,0.002442664597489319,0.0036529785288566003,0.004151537973249096,0.8799096991030746,4.0,0,0
1783054864.7679205,2026-07-03T14:01:04.767,-0.01025390625,0.0029296875,1.0380859375,0.0,0.0,0.0,0.24169921875,0.5767822265625,-30.355224609375,1.0381407126673559,0.0,1.0425280950930982,0.0043873824257423255,0.0038365795030780316,0.004155498868630992,0.9232536512137165,4.0,0,0
1783054864.7679205,2026-07-03T14:01:04.767,-0.01220703125,0.00390625,1.05029296875,0.0,0.0,0.0,0.24169921875,0.5767822265625,-30.355224609375,1.0503711680195194,0.0,1.0425258653391403,0.007845302680379085,0.004838760297403295,0.004157246247069007,1.1639340106001124,4.0,0,0
1783054864.7679205,2026-07-03T14:01:04.767,-0.01025390625,0.00048828125,1.04541015625,0.0,0.0,0.0,0.24169921875,0.5767822265625,-30.355224609375,1.0454605567895006,0.0,1.0425280950930982,0.0029324616964023775,0.004362185647153066,0.004159915933150295,1.0486235100067496,4.0,0,0
1783054864.7679205,2026-07-03T14:01:04.767,-0.0107421875,0.0009765625,1.04150390625,0.0,0.0,0.0,0.24169921875,0.5767822265625,-30.355224609375,1.0415597606477558,0.0,1.0425303248470559,0.0009705641993000835,0.0035142802851898204,0.004164123372260242,0.8439424030038539,4.0,0,0
1783054864.7679205,2026-07-03T14:01:04.767,-0.0126953125,0.00390625,1.04833984375,0.0,0.0,0.0,0.24169921875,0.5767822265625,-30.355224609375,1.0484239875843693,0.0,1.0425280950930982,0.005895892491271093,0.004109683336710138,0.004158374877160237,0.9882907284964769,4.0,0,0
1783054864.7679205,2026-07-03T14:01:04.767,-0.0107421875,0.00439453125,1.0400390625,0.0,0.0,0.0,0.24169921875,0.5767822265625,-30.355224609375,1.040103820790536,0.0,1.0425303248470559,0.002426504056519896,0.0036888885166625777,0.004161945834234026,0.8863374641543093,4.0,0,0
1783054864.821206,2026-07-03T14:01:04.821,-0.0087890625,0.0048828125,1.04345703125,0.0,0.0,0.0,0.24169921875,0.5767822265625,-30.355224609375,1.0435054698192063,0.0,1.0425280950930982,0.000977374726108149,0.0030110100690239703,0.004166794353747529,0.7226202719402098,4.0,0,0
1783054864.821206,2026-07-03T14:01:04.821,-0.00927734375,0.00634765625,1.046875,0.0,0.0,0.0,0.24169921875,0.5767822265625,-30.355224609375,1.046935350187357,0.0,1.0425303248470559,0.004405025340301183,0.0033595138868432735,0.004157029308398936,0.8081525622289099,4.0,0,0
1783054864.821206,2026-07-03T14:01:04.821,-0.009765625,0.00390625,1.0390625,0.0,0.0,0.0,0.24169921875,0.5767822265625,-30.355224609375,1.039115732306538,0.0,1.0425328976282324,0.0034171653216943376,0.0033739267455560394,0.004152571796715062,0.8124908877493754,4.0,0,0
1783054864.821206,2026-07-03T14:01:04.821,-0.0107421875,0.0068359375,1.0390625,0.0,0.0,0.0,0.24169921875,0.5767822265625,-30.355224609375,1.0391405119328372,0.0,1.0425303248470559,0.003389812914218693,0.0033778982877217026,0.004150641720512327,0.8138255516076579,4.0,0,0
1783054864.821206,2026-07-03T14:01:04.821,-0.009765625,0.0048828125,1.04443359375,0.0,0.0,0.0,0.24169921875,0.5767822265625,-30.355224609375,1.0444906610607347,0.0,1.0425280950930982,0.0019625659676365537,0.0030240652077004153,0.004147584771723885,0.7291147436737033,4.0,0,0
1783054864.821206,2026-07-03T14:01:04.821,-0.00927734375,0.00390625,1.04150390625,0.0,0.0,0.0,0.24169921875,0.5767822265625,-30.355224609375,1.0415525501049512,0.0,1.0425303248470559,0.0009777747421046978,0.002512492591301486,0.004144527822935442,0.6062192603455523,4.0,0,0
1783054864.821206,2026-07-03T14:01:04.821,-0.009765625,0.00439453125,1.03466796875,0.0,0.0,0.0,0.24169921875,0.5767822265625,-30.355224609375,1.0347233856900109,0.0,1.0425280950930982,0.0078047094030873065,0.0038355467942479413,0.004148805935215163,0.9244941446144128,4.0,0,0
1783054864.821206,2026-07-03T14:01:04.821,-0.0126953125,0.00439453125,1.0478515625,0.0,0.0,0.0,0.24169921875,0.5767822265625,-30.355224609375,1.0479376793960944,0.0,1.0425258653391403,0.005411814056954123,0.004229613609924487,0.004144527822935442,1.020529669632856,4.0,0,0
1783054864.853042,2026-07-03T14:01:04.853,-0.01123046875,0.0048828125,1.03857421875,0.0,0.0,0.0,0.24169921875,0.5767822265625,-30.355224609375,1.0386464139149703,0.0,1.0425280950930982,0.003881681178127927,0.004142630501975347,0.004147584771723885,0.9988055048850808,4.0,0,0
1783054864.853042,2026-07-03T14:01:04.853,-0.0107421875,0.00341796875,1.04541015625,0.0,0.0,0.0,0.24169921875,0.5767822265625,-30.355224609375,1.0454709330695475,0.0,1.0425258653391403,0.002945067730407258,0.0038432398090833247,0.004150641720512327,0.9259387024638063,4.0,0,0
1783054864.853042,2026-07-03T14:01:04.853,-0.0107421875,0.00341796875,1.044921875,0.0,0.0,0.0,0.24169921875,0.5767822265625,-30.355224609375,1.0449826802182784,0.0,1.0425280950930982,0.002454585125180264,0.0034960761381075595,0.004150490696928001,0.8423283879892061,4.0,0,0
1783054864.853042,2026-07-03T14:01:04.853,-0.00830078125,0.00439453125,1.04150390625,0.0,0.0,0.0,0.24169921875,0.5767822265625,-30.355224609375,1.0415462551458174,0.0,1.0425303248470559,0.0009840697012384325,0.002868074528890278,0.00414846418248611,0.6913581515295826,4.0,0,0
1783054864.853042,2026-07-03T14:01:04.853,-0.0078125,0.00439453125,1.04443359375,0.0,0.0,0.0,0.24169921875,0.5767822265625,-30.355224609375,1.0444720574599864,0.0,1.0425280950930982,0.0019439623668882078,0.0026370464883897606,0.0041467378784085214,0.6359327658785691,4.0,0,0
1783054864.853042,2026-07-03T14:01:04.853,-0.00927734375,0.005859375,1.0458984375,0.0,0.0,0.0,0.24169921875,0.5767822265625,-30.355224609375,1.0459559947470962,0.0,1.0425303248470559,0.00342566990004034,0.0028342023413024057,0.004145827576314632,0.6836276446937587,4.0,0,0
1783054864.853042,2026-07-03T14:01:04.853,-0.00927734375,0.00390625,1.0400390625,0.0,0.0,0.0,0.24169921875,0.5767822265625,-30.355224609375,1.0400877748642166,0.0,1.0425328976282324,0.0024451227640158724,0.0027369324469807724,0.004147584771723885,0.6598858366053855,4.0,0,0
1783054864.853042,2026-07-03T14:01:04.853,-0.00830078125,0.00537109375,1.04443359375,0.0,0.0,0.0,0.24169921875,0.5767822265625,-30.355224609375,1.0444803891749102,0.0,1.0425303248470559,0.0019500643278542729,0.0025402154171991474,0.004151527947726734,0.6118748203514086,4.0,0,0
1783054864.880224,2026-07-03T14:01:04.880,-0.009765625,0.00634765625,1.044921875,0.0,0.0,0.0,0.24169921875,0.5767822265625,-30.355224609375,1.0449867870097804,0.0,1.0425328976282324,0.0024538893815480023,0.002518633908286361,0.00415438709739787,0.6062588413737192,4.0,0,0
1783054864.880224,2026-07-03T14:01:04.880,-0.01025390625,0.00244140625,1.03857421875,0.0,0.0,0.0,0.24169921875,0.5767822265625,-30.355224609375,1.0386277056337532,0.0,1.042535470409409,0.003907764775655798,0.00286591662512872,0.004157246247069007,0.6893786066075072,4.0,0,0
1783054864.880224,2026-07-03T14:01:04.880,-0.0107421875,0.001953125,1.04052734375,0.0,0.0,0.0,0.24169921875,0.5767822265625,-30.355224609375,1.0405846252857003,0.0,1.0425328976282324,0.0019482723425321424,0.002636505554479576,0.00415493088240638,0.6345485951748518,4.0,0,0
1783054864.880224,2026-07-03T14:01:04.880,-0.013671875,0.00634765625,1.04638671875,0.0,0.0,0.0,0.24169921875,0.5767822265625,-30.355224609375,1.0464952833540508,0.0,1.0425303248470559,0.0039649585069949644,0.002968618792608423,0.004155670017639614,0.7143538298294854,4.0,0,0
1783054864.880224,2026-07-03T14:01:04.880,-0.0126953125,0.00341796875,1.04052734375,0.0,0.0,0.0,0.24169921875,0.5767822265625,-30.355224609375,1.0406104009480586,0.0,1.0425328976282324,0.0019224966801738574,0.0027070882644997817,0.0041527739513160435,0.6518746977889047,4.0,0,0
1783054864.880224,2026-07-03T14:01:04.880,-0.01123046875,0.001953125,1.0458984375,0.0,0.0,0.0,0.24169921875,0.5767822265625,-30.355224609375,1.0459605536015935,0.0,1.0425303248470559,0.0034302287545375787,0.002887873387009231,0.004143793768079855,0.696915326543244,4.0,0,0
1783054864.880224,2026-07-03T14:01:04.880,-0.009765625,0.00341796875,1.046875,0.0,0.0,0.0,0.24169921875,0.5767822265625,-30.355224609375,1.046926127082048,0.0,1.0425328976282324,0.004393229453815595,0.003264212403710822,0.004141311218478936,0.7882074617202365,4.0,0,0
1783054864.880224,2026-07-03T14:01:04.880,-0.00830078125,0.001953125,1.03759765625,0.0,0.0,0.0,0.24169921875,0.5767822265625,-30.355224609375,1.0376326970186123,0.0,1.042535470409409,0.0049027733907967,0.0036738526504822913,0.00413809018484966,0.8878135773678806,4.0,0,0
1783054864.9453795,2026-07-03T14:01:04.945,-0.009765625,0.00439453125,1.046875,0.0,0.0,0.0,0.24169921875,0.5767822265625,-30.355224609375,1.0469297707876817,0.0,1.0425328976282324,0.004396873159449255,0.0038546077777240322,0.004138427601387333,0.9314184393202491,4.0,0,0
1783054864.9453795,2026-07-03T14:01:04.945,-0.009765625,0.00634765625,1.0439453125,0.0,0.0,0.0,0.24169921875,0.5767822265625,-30.355224609375,1.0440102852281827,0.0,1.042535470409409,0.001474814818773762,0.0032596595379864647,0.004138340784262164,0.7876730573718661,4.0,0,0
1783054864.9453795,2026-07-03T14:01:04.945,-0.009765625,0.00390625,1.0419921875,0.0,0.0,0.0,0.24169921875,0.5767822265625,-30.355224609375,1.0420452701450826,0.0,1.0425370712446211,0.0004918010995385025,0.0025676949283744742,0.004135701109478487,0.6208608553673408,4.0,0,0
1783054864.9453795,2026-07-03T14:01:04.945,-0.01220703125,0.00439453125,1.04345703125,0.0,0.0,0.0,0.24169921875,0.5767822265625,-30.355224609375,1.043537684792413,0.0,1.042535470409409,0.0010022143830039631,0.0021763247920318467,0.004136467594566352,0.5261312320905543,4.0,0,0
1783054864.9453795,2026-07-03T14:01:04.945,-0.0087890625,0.00537109375,1.03857421875,0.0,0.0,0.0,0.24169921875,0.5767822265625,-30.355224609375,1.0386252953398896,0.0,1.0425370712446211,0.003911775904731574,0.0026101875702067784,0.004134307022420914,0.6313482661184505,4.0,0,0
1783054864.9453795,2026-07-03T14:01:04.945,-0.01123046875,0.005859375,1.03955078125,0.0,0.0,0.0,0.24169921875,0.5767822265625,-30.355224609375,1.0396279538860143,0.0,1.042535470409409,0.0029075165233947153,0.002684519808503763,0.004136158278751457,0.6490370115415683,4.0,0,0
1783054864.9453795,2026-07-03T14:01:04.945,-0.0087890625,0.001953125,1.04052734375,0.0,0.0,0.0,0.24169921875,0.5767822265625,-30.355224609375,1.0405662955373507,0.0,1.0425328976282324,0.0019666020908817305,0.0025050403790982546,0.004139301479713593,0.6051843267216147,4.0,0,0
1783054864.9453795,2026-07-03T14:01:04.945,-0.00927734375,0.00244140625,1.04736328125,0.0,0.0,0.0,0.24169921875,0.5767822265625,-30.355224609375,1.0474072142592392,0.0,1.0425303248470559,0.004876889412183338,0.0030980026373695255,0.00414244468067573,0.7478681976904925,4.0,0,0
1783054864.9730122,2026-07-03T14:01:04.973,-0.01220703125,0.0029296875,1.037109375,0.0,0.0,0.0,0.24169921875,0.5767822265625,-30.355224609375,1.0371853500670345,0.0,1.0425328976282324,0.0053475475611979295,0.0036603888683266264,0.004138674690926762,0.8844350285252706,4.0,0,0
1783054864.9730122,2026-07-03T14:01:04.973,-0.01220703125,0.00341796875,1.0439453125,0.0,0.0,0.0,0.24169921875,0.5767822265625,-30.355224609375,1.0440222744812666,0.0,1.0425303248470559,0.001491949634210732,0.0031182790597976528,0.004136188514778893,0.7539015808046036,4.0,0,0
1783054864.9730122,2026-07-03T14:01:04.973,-0.01220703125,0.00244140625,1.046875,0.0,0.0,0.0,0.24169921875,0.5767822265625,-30.355224609375,1.0469490138977238,0.0,1.0425328976282324,0.004416116269491344,0.0034427383622210755,0.004132250245938822,0.8331388849464286,4.0,0,0
1783054864.9730122,2026-07-03T14:01:04.973,-0.009765625,0.00341796875,1.0361328125,0.0,0.0,0.0,0.24169921875,0.5767822265625,-30.355224609375,1.0361844696197569,0.0,1.042535470409409,0.006351000789652117,0.004169803969078836,0.0041339790342265524,1.0086659691681252,4.0,0,0
1783054864.9730122,2026-07-03T14:01:04.973,-0.00927734375,0.0029296875,1.0478515625,0.0,0.0,0.0,0.24169921875,0.5767822265625,-30.355224609375,1.0478967264046561,0.0,1.0425328976282324,0.005363828776423718,0.004468310170915056,0.004135115100681168,1.080576976002192,4.0,0,0
1783054864.9730122,2026-07-03T14:01:04.973,-0.009765625,0.00537109375,1.04248046875,0.0,0.0,0.0,0.24169921875,0.5767822265625,-30.355224609375,1.042540044221291,0.0,1.042535470409409,4.573811882124801e-06,0.0033523760811568232,0.004136158278751457,0.8105047861390772,4.0,0,0
1783054864.9730122,2026-07-03T14:01:04.973,-0.00830078125,0.00537109375,1.03955078125,0.0,0.0,0.0,0.24169921875,0.5767822265625,-30.355224609375,1.039597796465016,0.0,1.0425370712446211,0.0029392747796050944,0.003249100755768891,0.004135475006676612,0.7856656733563391,4.0,0,0
1783054864.9730122,2026-07-03T14:01:04.973,-0.00927734375,0.00537109375,1.04345703125,0.0,0.0,0.0,0.24169921875,0.5767822265625,-30.355224609375,1.0435120956750767,0.0,1.042535470409409,0.0009766252656677743,0.0026809818832436117,0.004134134574967771,0.6484989384421557,4.0,0,0
1783054865.0017648,2026-07-03T14:01:05.001,-0.00830078125,0.00732421875,1.044921875,0.0,0.0,0.0,0.24169921875,0.5767822265625,-30.355224609375,1.0449805127384786,0.0,1.0425370712446211,0.0024434414938574456,0.00262159678589707,0.004135115100681168,0.633983993689854,4.0,0,0
1783054865.0017648,2026-07-03T14:01:05.001,-0.009765625,0.0029296875,1.04052734375,0.0,0.0,0.0,0.24169921875,0.5767822265625,-30.355224609375,1.0405772934251059,0.0,1.0425386720798333,0.0019613786547274525,0.0024565422531046656,0.004136188514778893,0.5939144805241026,4.0,0,0
1783054865.0017648,2026-07-03T14:01:05.001,-0.0107421875,0.00244140625,1.03955078125,0.0,0.0,0.0,0.24169921875,0.5767822265625,-30.355224609375,1.0396091486006884,0.0,1.0425370712446211,0.002927922643932712,0.0025743873508116775,0.004138674690926762,0.6220318201030683,4.0,0,0
1783054865.0017648,2026-07-03T14:01:05.001,-0.0107421875,0.00390625,1.044921875,0.0,0.0,0.0,0.24169921875,0.5767822265625,-30.355224609375,1.0449843913833656,0.0,1.042535470409409,0.0024489209739566586,0.0025430207565979228,0.00413892343654877,0.6144159938165983,4.0,0,0
1783054865.0017648,2026-07-03T14:01:05.001,-0.00830078125,0.0,1.0380859375,0.0,0.0,0.0,0.24169921875,0.5767822265625,-30.355224609375,1.0381191244768657,0.0,1.0425370712446211,0.004417946767755421,0.003011752259387297,0.004141737930052889,0.7271711320829123,4.0,0,0
1783054865.0017648,2026-07-03T14:01:05.001,-0.01220703125,0.00244140625,1.0478515625,0.0,0.0,0.0,0.24169921875,0.5767822265625,-30.355224609375,1.0479255074241238,0.0,1.042535470409409,0.005390037014714855,0.0036063234482191864,0.004140109255133044,0.8710696327030373,4.0,0,0
1783054865.0017648,2026-07-03T14:01:05.001,-0.0107421875,0.005859375,1.04443359375,0.0,0.0,0.0,0.24169921875,0.5767822265625,-30.355224609375,1.044505269791022,0.0,1.0425370712446211,0.0019681985464008456,0.0031967922227646014,0.004134612589440903,0.7731781765790257,4.0,0,0
1783054865.0017648,2026-07-03T14:01:05.001,-0.009765625,0.005859375,1.03466796875,0.0,0.0,0.0,0.24169921875,0.5767822265625,-30.355224609375,1.0347306438219959,0.0,1.0425386720798333,0.0078080282578374405,0.004349601231532811,0.004126658777904847,1.0540249304889595,4.0,0,0
1783054865.064832,2026-07-03T14:01:05.064,-0.00830078125,0.0078125,1.04833984375,0.0,0.0,0.0,0.24169921875,0.5767822265625,-30.355224609375,1.0484018152022556,0.0,1.0425370712446211,0.005864743957634477,0.004728386913058227,0.004134612589440903,1.143610631171037,4.0,0,0
1783054865.064832,2026-07-03T14:01:05.064,-0.00830078125,0.00634765625,1.04345703125,0.0,0.0,0.0,0.24169921875,0.5767822265625,-30.355224609375,1.0435093539467157,0.0,1.0425386720798333,0.000970681866882428,0.0037889606515142775,0.00413892343654877,0.915445938926015,4.0,0,0
1783054865.064832,2026-07-03T14:01:05.064,-0.0068359375,0.00439453125,1.0390625,0.0,0.0,0.0,0.24169921875,0.5767822265625,-30.355224609375,1.0390942790972633,0.0,1.0425393581505622,0.0034450790532989384,0.0037029902519604427,0.004138674690926762,0.8947285129895634,4.0,0,0
1783054865.064832,2026-07-03T14:01:05.064,-0.009765625,0.00341796875,1.04443359375,0.0,0.0,0.0,0.24169921875,0.5767822265625,-30.355224609375,1.0444848403378368,0.0,1.0425386720798333,0.0019461682580035333,0.0032637847534712156,0.004136188514778893,0.7890802708361775,4.0,0,0
1783054865.064832,2026-07-03T14:01:05.064,-0.01025390625,0.0068359375,1.04833984375,0.0,0.0,0.0,0.24169921875,0.5767822265625,-30.355224609375,1.04841227607686,0.0,1.0425393581505622,0.005872917926297738,0.0039160680466778465,0.004132250245938822,0.9476841463138784,4.0,0,0
1783054865.0658302,2026-07-03T14:01:05.065,-0.01025390625,0.001953125,1.0419921875,0.0,0.0,0.0,0.24169921875,0.5767822265625,-30.355224609375,1.0420444693494058,0.0,1.042540044221291,0.0004955748718853403,0.0030609447529797197,0.004136188514778893,0.740039952734927,4.0,0,0
1783054865.0658302,2026-07-03T14:01:05.065,-0.0107421875,0.00341796875,1.04345703125,0.0,0.0,0.0,0.24169921875,0.5767822265625,-30.355224609375,1.0435179218239257,0.0,1.0425393581505622,0.000978563673363464,0.0025403494830756558,0.004132250245938822,0.614761771887439,4.0,0,0
1783054865.0658302,2026-07-03T14:01:05.065,-0.01171875,0.0029296875,1.04443359375,0.0,0.0,0.0,0.24169921875,0.5767822265625,-30.355224609375,1.04450344371091,0.0,1.042540044221291,0.0019633994896188778,0.002396111984711461,0.0041327588881769515,0.5797850901890957,4.0,0,0
1783054865.0903058,2026-07-03T14:01:05.090,-0.01220703125,0.00146484375,1.03662109375,0.0,0.0,0.0,0.24169921875,0.5767822265625,-30.355224609375,1.0366939998797122,0.0,1.0425405587737453,0.0058465588940330715,0.0032587237120418637,0.004134612589440903,0.7881569655072616,4.0,0,0
1783054865.0903058,2026-07-03T14:01:05.090,-0.0068359375,0.04248046875,1.02587890625,0.0,0.0,0.0,0.24169921875,0.5767822265625,-30.355224609375,1.0267808191407843,0.0,1.042540044221291,0.015759225080506756,0.0063838490541580865,0.004126658777904847,1.546977687697077,4.0,0,0
1783054865.0903058,2026-07-03T14:01:05.090,-0.02197265625,-0.01611328125,1.291015625,0.0,0.0,0.0,0.24169921875,0.5767822265625,-30.355224609375,1.291303132285159,0.0,1.0425393581505622,0.24876377413459672,0.06697883032426774,0.004134612589440903,16.19954200674575,4.0,1,0
1783054865.0903058,2026-07-03T14:01:05.090,-0.00244140625,0.00048828125,1.05712890625,-0.244140625,0.48828125,0.0,0.2362060546875,0.5767822265625,-30.355224609375,1.0571318381887749,0.5459150335692846,1.042540044221291,0.01459179396748378,0.05388207123507175,0.00413892343654877,13.018378344297464,4.0,1,0
1783054865.0903058,2026-07-03T14:01:05.090,-0.00927734375,-0.01318359375,1.03173828125,0.06103515625,0.0,0.0,0.24169921875,0.5767822265625,-30.355224609375,1.0318642145398418,0.06103515625,1.0425405587737453,0.010676344233903512,0.04308063948477969,0.004141802773875181,10.401422239734583,4.0,1,0
1783054865.0903058,2026-07-03T14:01:05.090,-0.009765625,0.02685546875,1.0537109375,0.244140625,0.3662109375,0.0,0.24169921875,0.582275390625,-30.355224609375,1.0540983461900277,0.4401307709306628,1.042540044221291,0.01155830196873664,0.03520005510576893,0.004146456509151711,8.48918951111107,4.0,1,0
1783054865.0903058,2026-07-03T14:01:05.090,-0.0029296875,0.0009765625,1.0068359375,-0.48828125,-0.3662109375,0.0,0.2362060546875,0.5767822265625,-30.355224609375,1.0068406734854667,0.6103515625,1.0425405587737453,0.03569988528827861,0.03532501265139635,0.004146673542855518,8.518879599832335,4.0,1,0
1783054865.0903058,2026-07-03T14:01:05.090,-0.0107421875,0.0068359375,1.05810546875,0.48828125,0.67138671875,0.0,0.24169921875,0.582275390625,-30.355224609375,1.058182076786621,0.8301678777304348,1.042540044221291,0.015642032565329922,0.030404267629879744,0.004146983464943652,7.3316587555510955,4.0,1,0
1783054865.1196432,2026-07-03T14:01:05.119,-0.01171875,0.0078125,1.05322265625,-0.67138671875,-0.3662109375,0.0,0.2362060546875,0.582275390625,-30.355224609375,1.053316822184151,0.7647683158045452,1.0425405587737453,0.010776263410405607,0.02549726657501121,0.004154143116383292,6.137792045356832,4.0,1,0
1783054865.1196432,2026-07-03T14:01:05.119,-0.01611328125,0.0,1.0205078125,-0.244140625,0.1220703125,0.0,0.2362060546875,0.582275390625,-30.355224609375,1.0206350146875114,0.2729575167846423,1.0425410733261993,0.021906058638687886,0.02459946459093038,0.004156844839823653,5.9178212174919596,4.0,1,0
1783054865.1196432,2026-07-03T14:01:05.119,-0.0126953125,0.0,1.06103515625,0.06103515625,0.18310546875,0.0,0.2362060546875,0.582275390625,-30.355224609375,1.0611111033996086,0.19301011109426144,1.0425405587737453,0.018570544625863272,0.023092234599663603,0.0041591769179636015,5.552116453601095,4.0,1,0
1783054865.1196432,2026-07-03T14:01:05.119,-0.01416015625,0.0009765625,1.06494140625,0.06103515625,0.06103515625,0.0,0.2362060546875,0.582275390625,-30.355224609375,1.0650359911500964,0.08631674575031098,1.0425410733261993,0.02249491782389712,0.022942905405721983,0.00416150899610355,5.513121665050727,4.0,1,0
1783054865.1196432,2026-07-03T14:01:05.119,-0.01708984375,0.0029296875,1.01904296875,0.0,0.0,0.0,0.2362060546875,0.582275390625,-30.355224609375,1.0191904718878904,0.0,1.0425412448435711,0.023350772955680776,0.02304487229321168,0.004163035727634168,5.535593206716956,4.0,1,0
1783054865.1196432,2026-07-03T14:01:05.119,-0.01318359375,0.0029296875,1.044921875,0.06103515625,-0.1220703125,0.0,0.2362060546875,0.582275390625,-30.355224609375,1.0450091459248232,0.13647875839232115,1.0425410733261993,0.002468072598623916,0.01790067236956474,0.004164562459164786,4.298332068515732,4.0,1,0
1783054865.120865,2026-07-03T14:01:05.120,-0.01171875,0.001953125,1.05224609375,0.0,0.0,0.0,0.2362060546875,0.582275390625,-30.355224609375,1.0523131594781858,0.0,1.0425412448435711,0.009771914634614687,0.015868482935827224,0.004172768163265318,3.8028671411760517,4.0,0,1
1783054865.120865,2026-07-03T14:01:05.120,-0.009765625,-0.00048828125,1.0322265625,-0.1220703125,0.0,0.0,0.2362060546875,0.582275390625,-30.355224609375,1.0322728719581786,0.1220703125,1.0425414163609428,0.010268544402764146,0.014468498302561455,0.004179575131120168,3.461715090328751,4.0,0,0
1783054865.186679,2026-07-03T14:01:05.186,-0.01025390625,0.0068359375,1.06103515625,0.1220703125,-0.06103515625,0.0,0.2362060546875,0.582275390625,-30.355224609375,1.0611067219810406,0.13647875839232115,1.0425412448435711,0.018565477137469477,0.01549274301128846,0.004179959484957011,3.7064337745483664,4.0,0,0
1783054865.186679,2026-07-03T14:01:05.186,-0.001953125,0.0068359375,1.0361328125,-0.06103515625,-0.18310546875,0.0,0.2362060546875,0.582275390625,-30.355224609375,1.036157203264992,0.19301011109426144,1.0425414163609428,0.00638421309595083,0.013215610532454052,0.004181429963995689,3.160548101067675,4.0,0,0
1783054865.186679,2026-07-03T14:01:05.186,-0.0029296875,0.00830078125,1.02783203125,0.18310546875,-0.06103515625,0.0,0.2362060546875,0.582275390625,-30.355224609375,1.027869724479571,0.19301011109426144,1.0425412448435711,0.014671520364000212,0.013579587990340591,0.004187635179571847,3.242782001781014,4.0,0,0
1783054865.186679,2026-07-03T14:01:05.186,-0.00537109375,0.0087890625,1.052734375,0.0,-0.06103515625,0.0,0.2362060546875,0.5767822265625,-30.355224609375,1.0527847646002202,0.06103515625,1.0425410733261993,0.010243691274020916,0.012745613811260673,0.004189434881700644,3.042322931652005,4.0,0,0
1783054865.1876805,2026-07-03T14:01:05.187,-0.005859375,0.00537109375,1.033203125,-0.244140625,-0.1220703125,0.0,0.2362060546875,0.5767822265625,-30.355224609375,1.0332336998149196,0.2729575167846423,1.0425412448435711,0.009307545028651498,0.011886096615608379,0.0041984382492556115,2.831075726245539,4.0,0,0
1783054865.1876805,2026-07-03T14:01:05.187,-0.01220703125,-0.00048828125,1.044921875,0.0,0.18310546875,0.0,0.2362060546875,0.5767822265625,-30.355224609375,1.0449932893966511,0.18310546875,1.0425410733261993,0.0024522160704518736,0.009527626479319252,0.0042062423657527204,2.2651159041365068,4.0,0,0
1783054865.1876805,2026-07-03T14:01:05.187,-0.00927734375,0.00341796875,1.0546875,0.0,0.1220703125,0.0,0.2362060546875,0.582275390625,-30.355224609375,1.054733840489477,0.1220703125,1.0425412448435711,0.012192595645905913,0.010193868770965918,0.0042075908221131265,2.4227329134267808,4.0,0,0
1783054865.1876805,2026-07-03T14:01:05.187,-0.013671875,0.00146484375,1.041015625,0.06103515625,0.06103515625,0.0,0.2362060546875,0.582275390625,-30.355224609375,1.0411064294429115,0.08631674575031098,1.0425414163609428,0.0014349869180312336,0.008004148307732247,0.0042089392784735325,1.9017020152011157,4.0,0,0
1783054865.2122538,2026-07-03T14:01:05.212,-0.01123046875,0.0009765625,1.0400390625,0.18310546875,0.0,0.0,0.2362060546875,0.582275390625,-30.355224609375,1.0401001531720588,0.18310546875,1.0425412448435711,0.0024410916715122966,0.00661338414867726,0.004214709601377759,1.5691197672350643,4.0,0,0
1783054865.2122538,2026-07-03T14:01:05.212,-0.013671875,0.0029296875,1.04736328125,-0.1220703125,0.0,0.0,0.2362060546875,0.582275390625,-30.355224609375,1.0474566082399928,0.1220703125,1.0425410733261993,0.0049155349137934845,0.006188921839956316,0.004230282501219976,1.4630043828447594,4.0,0,0
1783054865.2122538,2026-07-03T14:01:05.212,-0.01123046875,0.00390625,1.0400390625,-0.06103515625,0.0,0.0,0.2362060546875,0.582275390625,-30.355224609375,1.0401070299460946,0.06103515625,1.0425412448435711,0.0024342148974765276,0.005250245104336369,0.004231383236868855,1.2407869508462326,4.0,0,0
1783054865.2122538,2026-07-03T14:01:05.212,-0.00927734375,0.0029296875,1.03955078125,0.0,-0.06103515625,0.0,0.2362060546875,0.5767822265625,-30.355224609375,1.0395963057713262,0.06103515625,1.0425410733261993,0.002944767554873051,0.0046738757169705394,0.004232052656204845,1.1043992352311387,4.0,0,0
1783054865.2122538,2026-07-03T14:01:05.212,-0.0087890625,0.00537109375,1.04736328125,0.0,0.0,0.0,0.2362060546875,0.5767822265625,-30.355224609375,1.0474139292459628,0.0,1.0425405587737453,0.004873370472217475,0.004723749405782273,0.0042420114727037845,1.1135635620455873,4.0,0,0
1783054865.2122538,2026-07-03T14:01:05.212,-0.0068359375,0.005859375,1.03564453125,0.06103515625,0.0,0.0,0.2362060546875,0.5767822265625,-30.355224609375,1.035683666678647,0.06103515625,1.0425410733261993,0.006857406647552189,0.005257163716224752,0.004251544800816728,1.2365302407762098,4.0,0,0
1783054865.2122538,2026-07-03T14:01:05.212,-0.00927734375,0.00830078125,1.04345703125,0.0,0.0,0.0,0.2362060546875,0.5767822265625,-30.355224609375,1.0435312875719058,0.0,1.0425405587737453,0.000990728798160534,0.004190554986708697,0.004253912023468356,0.9851061713523634,4.0,0,0
1783054865.2122538,2026-07-03T14:01:05.212,-0.005859375,0.0087890625,1.044921875,0.0,0.0,0.0,0.2362060546875,0.5767822265625,-30.355224609375,1.0449752651371875,0.0,1.0425410733261993,0.002434191810988251,0.003751464192778586,0.0042591402129436556,0.8808031680614254,4.0,0,0
1783054865.2415557,2026-07-03T14:01:05.241,-0.009765625,0.00732421875,1.03955078125,-0.1220703125,-0.06103515625,0.0,0.2362060546875,0.5767822265625,-30.355224609375,1.0396224499352753,0.13647875839232115,1.0425412448435711,0.0029187949082958298,0.003543296871657897,0.0042577755511445416,0.8321943768748956,4.0,0,0
1783054865.2415557,2026-07-03T14:01:05.241,-0.00927734375,0.0048828125,1.04248046875,-0.1220703125,0.0,0.0,0.2362060546875,0.5767822265625,-30.355224609375,1.042533183495943,0.1220703125,1.0425410733261993,7.889830256235797e-06,0.0026594451113074818,0.004252881733913878,0.6253277842410222,4.0,0,0
1783054865.2415557,2026-07-03T14:01:05.241,-0.009765625,0.00439453125,1.05029296875,-0.06103515625,0.06103515625,0.0,0.2362060546875,0.5767822265625,-30.355224609375,1.0503475613063689,0.08631674575031098,1.0425405587737453,0.007807002532623564,0.003946334466636502,0.0042577755511445416,0.9268535692483085,4.0,0,0
1783054865.2415557,2026-07-03T14:01:05.241,-0.0146484375,0.0029296875,1.04345703125,0.0,0.0,0.0,0.2362060546875,0.5767822265625,-30.355224609375,1.043563958679631,0.0,1.0425410733261993,0.0010228853534317572,0.0032154721883353157,0.004252881733913878,0.7560690349543658,4.0,0,0
1783054865.2415557,2026-07-03T14:01:05.241,-0.01123046875,0.00146484375,1.0390625,-0.06103515625,0.0,0.0,0.2362060546875,0.5767822265625,-30.355224609375,1.0391242216894987,0.06103515625,1.0425412448435711,0.0034170231540724405,0.0032658599297695967,0.0042488524238842185,0.7686451784983417,4.0,0,0
1783054865.2415557,2026-07-03T14:01:05.241,-0.01220703125,0.00537109375,1.0498046875,0.06103515625,0.06103515625,0.0,0.2362060546875,0.5767822265625,-30.355224609375,1.0498893952016957,0.08631674575031098,1.0425410733261993,0.007348321875496389,0.0042864754162012944,0.004243029295357069,1.0102394110009483,4.0,0,0
1783054865.2415557,2026-07-03T14:01:05.241,-0.0107421875,0.00390625,1.03955078125,-0.1220703125,-0.06103515625,0.0,0.2362060546875,0.5767822265625,-30.355224609375,1.0396136206200999,0.13647875839232115,1.0425412448435711,0.002927624223471259,0.003946762618018786,0.0042488524238842185,0.9289008476342259,4.0,0,0
1783054865.2415557,2026-07-03T14:01:05.241,-0.009765625,0.00048828125,1.04345703125,0.0,0.0,0.0,0.2362060546875,0.5767822265625,-30.355224609375,1.0435028423129873,0.0,1.0425410733261993,0.0009617689867880141,0.003200514210211093,0.004249490710523724,0.7531524194852632,4.0,0,0
1783054865.3020515,2026-07-03T14:01:05.302,-0.01025390625,0.00537109375,1.0478515625,-0.1220703125,-0.06103515625,0.0,0.2362060546875,0.5767822265625,-30.355224609375,1.0479154967244002,0.13647875839232115,1.0425412448435711,0.005374251880829073,0.003743948627865588,0.004244495425224622,0.8820715427364267,4.0,0,0
1783054865.3020515,2026-07-03T14:01:05.302,-0.00732421875,0.00244140625,1.0380859375,-0.06103515625,0.0,0.0,0.2362060546875,0.5767822265625,-30.355224609375,1.0381146460194217,0.06103515625,1.0425414163609428,0.004426770341521058,0.003914654056279455,0.00424077671320453,0.9230983664125431,4.0,0,0
1783054865.3020515,2026-07-03T14:01:05.302,-0.0068359375,0.00537109375,1.03857421875,0.0,0.1220703125,0.0,0.2362060546875,0.5767822265625,-30.355224609375,1.0386106039039598,0.1220703125,1.0425412448435711,0.003930640939611374,0.003918650777112434,0.004244377018088805,0.9232569963534857,4.0,0,0
1783054865.3020515,2026-07-03T14:01:05.302,-0.0068359375,0.00537109375,1.04833984375,0.0,0.0,0.0,0.2362060546875,0.5767822265625,-30.355224609375,1.048375889976181,0.0,1.0425410733261993,0.0058348166499817555,0.004397692245329765,0.004258227492822625,1.032751832245274,4.0,0,0
1783054865.3020515,2026-07-03T14:01:05.302,-0.00927734375,0.005859375,1.03759765625,-0.18310546875,-0.06103515625,0.0,0.230712890625,0.5767822265625,-30.355224609375,1.03765567392943,0.19301011109426144,1.0425412448435711,0.004885570914141102,0.004519661912532599,0.004268139825766773,1.058930142177486,4.0,0,0
