time,ts_iso,ax,ay,az,wx,wy,wz,roll,pitch,yaw,acc_mag,gyro_mag
1783054623.4656475,2026-07-03T13:57:03.465,-0.01025390625,0.01611328125,1.0458984375,0.0,0.0,0.0,0.4339599609375,0.076904296875,-56.744384765625,1.0460728091251426,0.0
1783054623.4656475,2026-07-03T13:57:03.465,-0.00927734375,0.017578125,1.04248046875,0.0,0.0,0.0,0.4339599609375,0.076904296875,-56.7388916015625,1.0426699321025763,0.0
1783054623.4656475,2026-07-03T13:57:03.465,-0.01123046875,0.017578125,1.04443359375,0.0,0.0,0.0,0.4339599609375,0.076904296875,-56.7388916015625,1.0446418743571408,0.0
1783054623.4656475,2026-07-03T13:57:03.465,-0.00927734375,0.0126953125,1.0439453125,0.0,0.0,0.0,0.4339599609375,0.076904296875,-56.7388916015625,1.044063721981207,0.0
1783054623.4656475,2026-07-03T13:57:03.465,-0.0107421875,0.01513671875,1.04296875,0.0,0.0,0.0,0.439453125,0.0823974609375,-56.7388916015625,1.0431338976005737,0.0
1783054623.4656475,2026-07-03T13:57:03.465,-0.01025390625,0.01611328125,1.0439453125,0.0,0.0,0.0,0.439453125,0.0823974609375,-56.7388916015625,1.0441200103037716,0.0
1783054623.4656475,2026-07-03T13:57:03.465,-0.00634765625,0.01611328125,1.04150390625,0.0,0.0,0.0,0.439453125,0.0823974609375,-56.7388916015625,1.0416478854711502,0.0
1783054623.4656475,2026-07-03T13:57:03.465,-0.0107421875,0.01611328125,1.0439453125,0.0,0.0,0.0,0.439453125,0.0823974609375,-56.7388916015625,1.0441249196890425,0.0
1783054623.4961753,2026-07-03T13:57:03.496,-0.0087890625,0.0166015625,1.03955078125,0.0,0.0,0.0,0.4449462890625,0.087890625,-56.7388916015625,1.039720484695072,0.0
1783054623.4961753,2026-07-03T13:57:03.496,-0.00927734375,0.01708984375,1.044921875,0.0,0.0,0.0,0.4449462890625,0.087890625,-56.7333984375,1.0451027972022517,0.0
1783054623.4961753,2026-07-03T13:57:03.496,-0.00927734375,0.01611328125,1.041015625,0.0,0.0,0.0,0.4449462890625,0.087890625,-56.7333984375,1.0411816548680821,0.0
1783054623.4961753,2026-07-03T13:57:03.496,-0.0107421875,0.015625,1.04443359375,0.0,0.0,0.0,0.4449462890625,0.087890625,-56.7333984375,1.044605699281229,0.0
1783054623.4961753,2026-07-03T13:57:03.496,-0.01025390625,0.015625,1.041015625,0.0,0.0,0.0,0.4449462890625,0.0933837890625,-56.7333984375,1.0411833722800823,0.0
1783054623.4961753,2026-07-03T13:57:03.496,-0.0078125,0.01611328125,1.0400390625,0.0,0.0,0.0,0.450439453125,0.0933837890625,-56.7333984375,1.0401932149917008,0.0
1783054623.4961753,2026-07-03T13:57:03.496,-0.0087890625,0.01513671875,1.04296875,0.0,0.0,0.0,0.450439453125,0.0933837890625,-56.7333984375,1.0431156126483334,0.0
1783054623.4961753,2026-07-03T13:57:03.496,-0.0078125,0.015625,1.04345703125,0.0,0.0,0.0,0.450439453125,0.0933837890625,-56.7333984375,1.0436032540416464,0.0
1783054623.5231733,2026-07-03T13:57:03.523,-0.009765625,0.0146484375,1.04296875,0.0,0.0,0.0,0.450439453125,0.098876953125,-56.7279052734375,1.0431173268762217,0.0
1783054623.5231733,2026-07-03T13:57:03.523,-0.0087890625,0.01513671875,1.04296875,0.0,0.0,0.0,0.4559326171875,0.098876953125,-56.7279052734375,1.0431156126483334,0.0
1783054623.5231733,2026-07-03T13:57:03.523,-0.00927734375,0.01611328125,1.04296875,0.0,0.0,0.0,0.4559326171875,0.098876953125,-56.7279052734375,1.0431344690001667,0.0
1783054623.5231733,2026-07-03T13:57:03.523,-0.01025390625,0.013671875,1.04150390625,0.0,0.0,0.0,0.4559326171875,0.098876953125,-56.7279052734375,1.0416441088459187,0.0
1783054623.5231733,2026-07-03T13:57:03.523,-0.00927734375,0.01708984375,1.04345703125,0.0,0.0,0.0,0.4559326171875,0.1043701171875,-56.7279052734375,1.0436382073935002,0.0
1783054623.5231733,2026-07-03T13:57:03.523,-0.01123046875,0.0166015625,1.04296875,0.0,0.0,0.0,0.4559326171875,0.1043701171875,-56.7279052734375,1.0431613244279854,0.0
1783054623.5231733,2026-07-03T13:57:03.523,-0.01025390625,0.01513671875,1.04443359375,0.0,0.0,0.0,0.46142578125,0.1043701171875,-56.7279052734375,1.0445936026041134,0.0
1783054623.5231733,2026-07-03T13:57:03.523,-0.009765625,0.01513671875,1.0419921875,0.0,0.0,0.0,0.46142578125,0.1043701171875,-56.7279052734375,1.0421478812995746,0.0
1783054623.5830445,2026-07-03T13:57:03.583,-0.0087890625,0.01513671875,1.04345703125,0.0,0.0,0.0,0.46142578125,0.10986328125,-56.722412109375,1.043603825184255,0.0
1783054623.5830445,2026-07-03T13:57:03.583,-0.00830078125,0.015625,1.044921875,0.0,0.0,0.0,0.46142578125,0.10986328125,-56.722412109375,1.0450716570876257,0.0
1783054623.5830445,2026-07-03T13:57:03.583,-0.0107421875,0.0166015625,1.04345703125,0.0,0.0,0.0,0.4669189453125,0.10986328125,-56.722412109375,1.0436443755105425,0.0
1783054623.5830445,2026-07-03T13:57:03.583,-0.0107421875,0.0146484375,1.04296875,0.0,0.0,0.0,0.4669189453125,0.10986328125,-56.722412109375,1.043126926500337,0.0
1783054623.5830445,2026-07-03T13:57:03.583,-0.009765625,0.015625,1.04296875,0.0,0.0,0.0,0.4669189453125,0.10986328125,-56.722412109375,1.0431314977188653,0.0
1783054623.5830445,2026-07-03T13:57:03.583,-0.01123046875,0.0146484375,1.04296875,0.0,0.0,0.0,0.4669189453125,0.1153564453125,-56.722412109375,1.043132069119773,0.0
1783054623.5830445,2026-07-03T13:57:03.583,-0.00927734375,0.015625,1.0439453125,0.0,0.0,0.0,0.4669189453125,0.1153564453125,-56.722412109375,1.0441034552297863,0.0
1783054623.5830445,2026-07-03T13:57:03.583,-0.0078125,0.01611328125,1.0458984375,0.0,0.0,0.0,0.472412109375,0.1153564453125,-56.722412109375,1.0460517265192162,0.0
1783054623.61487,2026-07-03T13:57:03.614,-0.0126953125,0.0146484375,1.04248046875,0.0,0.0,0.0,0.472412109375,0.1153564453125,-56.7169189453125,1.0426606712664883,0.0
1783054623.6158733,2026-07-03T13:57:03.615,-0.00927734375,0.01708984375,1.04443359375,0.0,0.0,0.0,0.472412109375,0.120849609375,-56.7169189453125,1.0446146005202086,0.0
1783054623.6158733,2026-07-03T13:57:03.615,-0.009765625,0.0146484375,1.04052734375,0.0,0.0,0.0,0.472412109375,0.120849609375,-56.7169189453125,1.0406762691847367,0.0
1783054623.6158733,2026-07-03T13:57:03.615,-0.01123046875,0.0166015625,1.04150390625,0.0,0.0,0.0,0.4779052734375,0.120849609375,-56.7169189453125,1.041696751477989,0.0
1783054623.6158733,2026-07-03T13:57:03.615,-0.0107421875,0.015625,1.0419921875,0.0,0.0,0.0,0.4779052734375,0.120849609375,-56.7169189453125,1.0421646962108821,0.0
1783054623.6158733,2026-07-03T13:57:03.615,-0.00732421875,0.01513671875,1.0419921875,0.0,0.0,0.0,0.4779052734375,0.1263427734375,-56.7169189453125,1.0421278631942674,0.0
1783054623.6158733,2026-07-03T13:57:03.615,-0.00927734375,0.01611328125,1.04345703125,0.0,0.0,0.0,0.4779052734375,0.1263427734375,-56.7169189453125,1.043622672714981,0.0
1783054623.6158733,2026-07-03T13:57:03.615,-0.0087890625,0.0185546875,1.04150390625,0.0,0.0,0.0,0.4779052734375,0.1263427734375,-56.7169189453125,1.0417062497565521,0.0
1783054623.6438735,2026-07-03T13:57:03.643,-0.01025390625,0.015625,1.04345703125,0.0,0.0,0.0,0.4833984375,0.1263427734375,-56.7169189453125,1.043624386109987,0.0
1783054623.6438735,2026-07-03T13:57:03.643,-0.009765625,0.01611328125,1.0439453125,0.0,0.0,0.0,0.4833984375,0.1263427734375,-56.71142578125,1.0441153292405034,0.0
1783054623.6438735,2026-07-03T13:57:03.643,-0.0087890625,0.0166015625,1.0439453125,0.0,0.0,0.0,0.4833984375,0.1318359375,-56.71142578125,1.044114301687221,0.0
1783054623.6438735,2026-07-03T13:57:03.643,-0.01123046875,0.01611328125,1.04248046875,0.0,0.0,0.0,0.4833984375,0.1318359375,-56.71142578125,1.0426654731917644,0.0
1783054623.6438735,2026-07-03T13:57:03.643,-0.01025390625,0.017578125,1.04541015625,0.0,0.0,0.0,0.4833984375,0.1318359375,-56.71142578125,1.0456082095424408,0.0
1783054623.6438735,2026-07-03T13:57:03.643,-0.0087890625,0.01513671875,1.04296875,0.0,0.0,0.0,0.4888916015625,0.1318359375,-56.71142578125,1.0431156126483334,0.0
1783054623.6438735,2026-07-03T13:57:03.643,-0.01025390625,0.0146484375,1.04345703125,0.0,0.0,0.0,0.4888916015625,0.1373291015625,-56.71142578125,1.0436102219601142,0.0
1783054623.6438735,2026-07-03T13:57:03.643,-0.01123046875,0.01611328125,1.0419921875,0.0,0.0,0.0,0.4888916015625,0.1373291015625,-56.71142578125,1.0421772786201116,0.0
1783054623.7073054,2026-07-03T13:57:03.707,-0.01025390625,0.0166015625,1.04150390625,0.0,0.0,0.0,0.4888916015625,0.1373291015625,-56.71142578125,1.0416866809193799,0.0
1783054623.7073054,2026-07-03T13:57:03.707,-0.0087890625,0.013671875,1.04296875,0.0,0.0,0.0,0.4888916015625,0.1373291015625,-56.7059326171875,1.0430953845464983,0.0
1783054623.7073054,2026-07-03T13:57:03.707,-0.01123046875,0.01708984375,1.04150390625,0.0,0.0,0.0,0.494384765625,0.1373291015625,-56.7059326171875,1.0417046476433485,0.0
1783054623.7073054,2026-07-03T13:57:03.707,-0.00830078125,0.01416015625,1.04248046875,0.0,0.0,0.0,0.494384765625,0.142822265625,-56.7059326171875,1.0426096780289373,0.0
1783054623.7073054,2026-07-03T13:57:03.707,-0.00830078125,0.0146484375,1.04345703125,0.0,0.0,0.0,0.494384765625,0.142822265625,-56.7059326171875,1.04359285919156,0.0
1783054623.7073054,2026-07-03T13:57:03.707,-0.01123046875,0.01806640625,1.04345703125,0.0,0.0,0.0,0.494384765625,0.142822265625,-56.7059326171875,1.0436738448999276,0.0
1783054623.7073054,2026-07-03T13:57:03.707,-0.01025390625,0.0146484375,1.044921875,0.0,0.0,0.0,0.4998779296875,0.142822265625,-56.7059326171875,1.0450748509882395,0.0
1783054623.7073054,2026-07-03T13:57:03.707,-0.0107421875,0.01708984375,1.04345703125,0.0,0.0,0.0,0.4998779296875,0.1483154296875,-56.7059326171875,1.0436522569403797,0.0
1783054623.7327332,2026-07-03T13:57:03.732,-0.0107421875,0.0146484375,1.044921875,0.0,0.0,0.0,0.4998779296875,0.1483154296875,-56.7059326171875,1.0450797558880338,0.0
1783054623.7337344,2026-07-03T13:57:03.733,-0.009765625,0.01513671875,1.044921875,0.0,0.0,0.0,0.4998779296875,0.1483154296875,-56.7059326171875,1.0450771323398445,0.0
1783054623.7337344,2026-07-03T13:57:03.733,-0.009765625,0.01611328125,1.04296875,0.0,0.0,0.0,0.4998779296875,0.1483154296875,-56.700439453125,1.04313892590625,0.0
1783054623.7337344,2026-07-03T13:57:03.733,-0.0078125,0.017578125,1.04345703125,0.0,0.0,0.0,0.50537109375,0.1483154296875,-56.700439453125,1.0436343237455488,0.0
1783054623.7337344,2026-07-03T13:57:03.733,-0.00927734375,0.017578125,1.04296875,0.0,0.0,0.0,0.50537109375,0.15380859375,-56.700439453125,1.0431581246686112,0.0
1783054623.7337344,2026-07-03T13:57:03.733,-0.01171875,0.01611328125,1.0439453125,0.0,0.0,0.0,0.50537109375,0.15380859375,-56.700439453125,1.0441354234125604,0.0
1783054623.7337344,2026-07-03T13:57:03.733,-0.0107421875,0.015625,1.0439453125,0.0,0.0,0.0,0.50537109375,0.15380859375,-56.700439453125,1.0441174985163346,0.0
1783054623.7337344,2026-07-03T13:57:03.733,-0.01025390625,0.015625,1.0439453125,0.0,0.0,0.0,0.50537109375,0.15380859375,-56.700439453125,1.0441125890961696,0.0
1783054623.7745624,2026-07-03T13:57:03.774,-0.009765625,0.013671875,1.04296875,0.0,0.0,0.0,0.5108642578125,0.1593017578125,-56.700439453125,1.0431040701072058,0.0
1783054623.7755606,2026-07-03T13:57:03.775,-0.00830078125,0.01416015625,1.0419921875,0.0,0.0,0.0,0.5108642578125,0.1593017578125,-56.700439453125,1.0421214573193567,0.0
1783054623.7755606,2026-07-03T13:57:03.775,-0.009765625,0.01611328125,1.0439453125,0.0,0.0,0.0,0.5108642578125,0.1593017578125,-56.700439453125,1.0441153292405034,0.0
1783054623.7755606,2026-07-03T13:57:03.775,-0.01123046875,0.01611328125,1.04296875,0.0,0.0,0.0,0.5108642578125,0.1593017578125,-56.6949462890625,1.0431536678445552,0.0
1783054623.7755606,2026-07-03T13:57:03.775,-0.01171875,0.01416015625,1.041015625,0.0,0.0,0.0,0.5108642578125,0.1593017578125,-56.6949462890625,1.04117787655171,0.0
1783054623.7755606,2026-07-03T13:57:03.775,-0.0107421875,0.01513671875,1.04052734375,0.0,0.0,0.0,0.516357421875,0.164794921875,-56.6949462890625,1.0406928787775154,0.0
1783054623.7755606,2026-07-03T13:57:03.775,-0.00732421875,0.013671875,1.04150390625,0.0,0.0,0.0,0.516357421875,0.164794921875,-56.6949462890625,1.0416193887789926,0.0
1783054623.7755606,2026-07-03T13:57:03.775,-0.0087890625,0.015625,1.04150390625,0.0,0.0,0.0,0.516357421875,0.164794921875,-56.6949462890625,1.0416581852885511,0.0
1783054623.8228242,2026-07-03T13:57:03.822,-0.00830078125,0.01708984375,1.04248046875,0.0,0.0,0.0,0.516357421875,0.164794921875,-56.6949462890625,1.042653582669709,0.0
1783054623.8228242,2026-07-03T13:57:03.822,-0.0087890625,0.0166015625,1.04296875,0.0,0.0,0.0,0.516357421875,0.164794921875,-56.6949462890625,1.0431378973911516,0.0
1783054623.8228242,2026-07-03T13:57:03.822,-0.009765625,0.015625,1.0419921875,0.0,0.0,0.0,0.516357421875,0.1702880859375,-56.6949462890625,1.042155087723356,0.0
1783054623.8228242,2026-07-03T13:57:03.822,-0.0087890625,0.0146484375,1.04150390625,0.0,0.0,0.0,0.5218505859375,0.1702880859375,-56.6949462890625,1.0416439944025162,0.0
1783054623.8228242,2026-07-03T13:57:03.822,-0.0087890625,0.0146484375,1.04296875,0.0,0.0,0.0,0.5218505859375,0.1702880859375,-56.689453125,1.043108641425898,0.0
1783054623.8228242,2026-07-03T13:57:03.822,-0.01171875,0.0166015625,1.04150390625,0.0,0.0,0.0,0.5218505859375,0.1702880859375,-56.689453125,1.0417021300319074,0.0
1783054623.8228242,2026-07-03T13:57:03.822,-0.00830078125,0.017578125,1.04345703125,0.0,0.0,0.0,0.5218505859375,0.1702880859375,-56.689453125,1.0436380931687668,0.0
1783054623.8228242,2026-07-03T13:57:03.822,-0.00927734375,0.015625,1.044921875,0.0,0.0,0.0,0.5218505859375,0.17578125,-56.689453125,1.0450798699551969,0.0
1783054623.8604696,2026-07-03T13:57:03.860,-0.00927734375,0.01513671875,1.0419921875,0.0,0.0,0.0,0.52734375,0.17578125,-56.689453125,1.0421434201551183,0.0
1783054623.8604696,2026-07-03T13:57:03.860,-0.0087890625,0.015625,1.04296875,0.0,0.0,0.0,0.52734375,0.17578125,-56.689453125,1.0431228123865337,0.0
1783054623.8614633,2026-07-03T13:57:03.861,-0.0087890625,0.01611328125,1.0419921875,0.0,0.0,0.0,0.52734375,0.17578125,-56.689453125,1.042153829462477,0.0
1783054623.8614633,2026-07-03T13:57:03.861,-0.00927734375,0.01611328125,1.04296875,0.0,0.0,0.0,0.52734375,0.17578125,-56.689453125,1.0431344690001667,0.0
1783054623.8614633,2026-07-03T13:57:03.861,-0.009765625,0.01416015625,1.04541015625,0.0,0.0,0.0,0.52734375,0.1812744140625,-56.689453125,1.0455516592915506,0.0
1783054623.8614633,2026-07-03T13:57:03.861,-0.009765625,0.01513671875,1.0458984375,0.0,0.0,0.0,0.5328369140625,0.1812744140625,-56.689453125,1.046053549896514,0.0
1783054623.8614633,2026-07-03T13:57:03.861,-0.0107421875,0.01416015625,1.04150390625,0.0,0.0,0.0,0.5328369140625,0.1812744140625,-56.6839599609375,1.041655553122681,0.0
1783054623.8614633,2026-07-03T13:57:03.861,-0.00830078125,0.01708984375,1.04150390625,0.0,0.0,0.0,0.5328369140625,0.1812744140625,-56.6839599609375,1.041677182462383,0.0
1783054623.8860369,2026-07-03T13:57:03.886,-0.0078125,0.01611328125,1.0439453125,0.0,0.0,0.0,0.5328369140625,0.1812744140625,-56.6839599609375,1.0440988882666307,0.0
1783054623.8860369,2026-07-03T13:57:03.886,-0.0078125,0.01708984375,1.04345703125,0.0,0.0,0.0,0.5328369140625,0.186767578125,-56.6839599609375,1.043626213728226,0.0
1783054623.8860369,2026-07-03T13:57:03.886,-0.01123046875,0.01513671875,1.041015625,0.0,0.0,0.0,0.5328369140625,0.186767578125,-56.6839599609375,1.0411862346271208,0.0
1783054623.8860369,2026-07-03T13:57:03.886,-0.0078125,0.01708984375,1.04248046875,0.0,0.0,0.0,0.538330078125,0.186767578125,-56.6839599609375,1.042649809687255,0.0
1783054623.8860369,2026-07-03T13:57:03.886,-0.01123046875,0.0146484375,1.04296875,0.0,0.0,0.0,0.538330078125,0.186767578125,-56.6839599609375,1.043132069119773,0.0
1783054623.8860369,2026-07-03T13:57:03.886,-0.01025390625,0.0146484375,1.041015625,0.0,0.0,0.0,0.538330078125,0.186767578125,-56.6839599609375,1.0411691749224599,0.0
1783054623.8860369,2026-07-03T13:57:03.886,-0.009765625,0.0146484375,1.0400390625,0.0,0.0,0.0,0.538330078125,0.1922607421875,-56.6839599609375,1.0401880578427687,0.0
1783054623.8860369,2026-07-03T13:57:03.886,-0.01025390625,0.01416015625,1.0419921875,0.0,0.0,0.0,0.538330078125,0.1922607421875,-56.6839599609375,1.0421388446025046,0.0
1783054623.9498918,2026-07-03T13:57:03.949,-0.009765625,0.015625,1.0419921875,0.0,0.0,0.0,0.5438232421875,0.1922607421875,-56.678466796875,1.042155087723356,0.0
1783054623.9498918,2026-07-03T13:57:03.949,-0.01171875,0.015625,1.04443359375,0.0,0.0,0.0,0.5438232421875,0.1922607421875,-56.678466796875,1.0446161981704585,0.0
1783054623.9498918,2026-07-03T13:57:03.949,-0.00830078125,0.01513671875,1.04345703125,0.0,0.0,0.0,0.5438232421875,0.1922607421875,-56.678466796875,1.043599827179432,0.0
1783054623.9498918,2026-07-03T13:57:03.949,-0.009765625,0.015625,1.041015625,0.0,0.0,0.0,0.5438232421875,0.1922607421875,-56.678466796875,1.0411786780139043,0.0
1783054623.9498918,2026-07-03T13:57:03.949,-0.01123046875,0.0166015625,1.04296875,0.0,0.0,0.0,0.5438232421875,0.19775390625,-56.678466796875,1.0431613244279854,0.0
1783054623.9498918,2026-07-03T13:57:03.949,-0.00830078125,0.015625,1.0439453125,0.0,0.0,0.0,0.5438232421875,0.19775390625,-56.678466796875,1.0440952346817234,0.0
1783054623.9498918,2026-07-03T13:57:03.949,-0.009765625,0.0146484375,1.04248046875,0.0,0.0,0.0,0.54931640625,0.19775390625,-56.678466796875,1.0426291152073452,0.0
1783054623.9498918,2026-07-03T13:57:03.949,-0.00927734375,0.015625,1.0439453125,0.0,0.0,0.0,0.54931640625,0.19775390625,-56.678466796875,1.0441034552297863,0.0
1783054623.9736834,2026-07-03T13:57:03.973,-0.00830078125,0.0146484375,1.04248046875,0.0,0.0,0.0,0.54931640625,0.19775390625,-56.678466796875,1.0426164239142655,0.0
1783054623.9736834,2026-07-03T13:57:03.973,-0.009765625,0.01513671875,1.04541015625,0.0,0.0,0.0,0.54931640625,0.2032470703125,-56.678466796875,1.0455653410843373,0.0
1783054623.9736834,2026-07-03T13:57:03.973,-0.00830078125,0.01416015625,1.0458984375,0.0,0.0,0.0,0.54931640625,0.2032470703125,-56.6729736328125,1.046027224578465,0.0
1783054623.9736834,2026-07-03T13:57:03.973,-0.0107421875,0.015625,1.04296875,0.0,0.0,0.0,0.54931640625,0.2032470703125,-56.6729736328125,1.0431410972125716,0.0
1783054623.9736834,2026-07-03T13:57:03.973,-0.01123046875,0.01611328125,1.04248046875,0.0,0.0,0.0,0.5548095703125,0.2032470703125,-56.6729736328125,1.0426654731917644,0.0
1783054623.9736834,2026-07-03T13:57:03.973,-0.009765625,0.01416015625,1.04296875,0.0,0.0,0.0,0.5548095703125,0.2032470703125,-56.6729736328125,1.043110584230276,0.0
1783054623.9736834,2026-07-03T13:57:03.973,-0.01025390625,0.0146484375,1.04150390625,0.0,0.0,0.0,0.5548095703125,0.2032470703125,-56.6729736328125,1.0416573841952947,0.0
1783054623.9736834,2026-07-03T13:57:03.973,-0.0087890625,0.0146484375,1.04248046875,0.0,0.0,0.0,0.5548095703125,0.208740234375,-56.6729736328125,1.0426204256900207,0.0
1783054624.0031912,2026-07-03T13:57:04.003,-0.00927734375,0.015625,1.0419921875,0.0,0.0,0.0,0.5548095703125,0.208740234375,-56.6729736328125,1.0421506266097482,0.0
1783054624.0031912,2026-07-03T13:57:04.003,-0.01025390625,0.0185546875,1.04345703125,0.0,0.0,0.0,0.5548095703125,0.208740234375,-56.6729736328125,1.043672360028122,0.0
1783054624.0031912,2026-07-03T13:57:04.003,-0.01025390625,0.01416015625,1.0419921875,0.0,0.0,0.0,0.560302734375,0.208740234375,-56.6729736328125,1.0421388446025046,0.0
1783054624.0031912,2026-07-03T13:57:04.003,-0.009765625,0.01513671875,1.04345703125,0.0,0.0,0.0,0.560302734375,0.208740234375,-56.6729736328125,1.0436125065134187,0.0
1783054624.0031912,2026-07-03T13:57:04.003,-0.01025390625,0.01513671875,1.04443359375,0.0,0.0,0.0,0.560302734375,0.2142333984375,-56.66748046875,1.0445936026041134,0.0
1783054624.0031912,2026-07-03T13:57:04.003,-0.0087890625,0.01513671875,1.0419921875,0.0,0.0,0.0,0.560302734375,0.2142333984375,-56.66748046875,1.0421391877696475,0.0
1783054624.0031912,2026-07-03T13:57:04.003,-0.01025390625,0.01416015625,1.04296875,0.0,0.0,0.0,0.560302734375,0.2142333984375,-56.66748046875,1.0431152698024178,0.0
1783054624.0031912,2026-07-03T13:57:04.003,-0.00927734375,0.015625,1.04296875,0.0,0.0,0.0,0.560302734375,0.2142333984375,-56.66748046875,1.0431270407810442,0.0
1783054624.0637128,2026-07-03T13:57:04.063,-0.0087890625,0.01611328125,1.04345703125,0.0,0.0,0.0,0.5657958984375,0.2142333984375,-56.66748046875,1.0436184463286062,0.0
1783054624.0637128,2026-07-03T13:57:04.063,-0.0087890625,0.01708984375,1.044921875,0.0,0.0,0.0,0.5657958984375,0.2142333984375,-56.66748046875,1.045098576801511,0.0
1783054624.0637128,2026-07-03T13:57:04.063,-0.009765625,0.01220703125,1.04248046875,0.0,0.0,0.0,0.5657958984375,0.2197265625,-56.66748046875,1.0425976725318347,0.0
1783054624.0637128,2026-07-03T13:57:04.063,-0.00927734375,0.01513671875,1.04296875,0.0,0.0,0.0,0.5657958984375,0.2197265625,-56.66748046875,1.0431198410720288,0.0
1783054624.0637128,2026-07-03T13:57:04.063,-0.01025390625,0.013671875,1.04296875,0.0,0.0,0.0,0.5657958984375,0.2197265625,-56.66748046875,1.0431087557086087,0.0
1783054624.0637128,2026-07-03T13:57:04.063,-0.01025390625,0.01416015625,1.0419921875,0.0,0.0,0.0,0.5657958984375,0.2197265625,-56.66748046875,1.0421388446025046,0.0
1783054624.0637128,2026-07-03T13:57:04.063,-0.01123046875,0.015625,1.0419921875,0.0,0.0,0.0,0.5657958984375,0.2197265625,-56.66748046875,1.0421698435784734,0.0
1783054624.0637128,2026-07-03T13:57:04.063,-0.009765625,0.013671875,1.04248046875,0.0,0.0,0.0,0.5712890625,0.2252197265625,-56.6619873046875,1.042615852230761,0.0
1783054624.0924356,2026-07-03T13:57:04.092,-0.00830078125,0.0166015625,1.04296875,0.0,0.0,0.0,0.5712890625,0.2252197265625,-56.6619873046875,1.0431338976005737,0.0
1783054624.0924356,2026-07-03T13:57:04.092,-0.01025390625,0.013671875,1.04345703125,0.0,0.0,0.0,0.5712890625,0.2252197265625,-56.6619873046875,1.043596971452324,0.0
1783054624.0924356,2026-07-03T13:57:04.092,-0.01171875,0.01513671875,1.0439453125,0.0,0.0,0.0,0.5712890625,0.2252197265625,-56.6619873046875,1.044120809507598,0.0
1783054624.101758,2026-07-03T13:57:04.101,-0.0087890625,0.01416015625,1.04248046875,0.0,0.0,0.0,0.5712890625,0.2252197265625,-56.6619873046875,1.0426136798305847,0.0
1783054624.101758,2026-07-03T13:57:04.101,-0.0087890625,0.01513671875,1.044921875,0.0,0.0,0.0,0.5712890625,0.2252197265625,-56.6619873046875,1.0450684631772509,0.0
1783054624.101758,2026-07-03T13:57:04.101,-0.00732421875,0.01513671875,1.04248046875,0.0,0.0,0.0,0.5712890625,0.230712890625,-56.6619873046875,1.0426160809042004,0.0
1783054624.101758,2026-07-03T13:57:04.101,-0.009765625,0.01806640625,1.041015625,0.0,0.0,0.0,0.5767822265625,0.230712890625,-56.6619873046875,1.0412181778861582,0.0
1783054624.101758,2026-07-03T13:57:04.101,-0.0107421875,0.0146484375,1.04345703125,0.0,0.0,0.0,0.5767822265625,0.230712890625,-56.6619873046875,1.0436151337435366,0.0
1783054624.125514,2026-07-03T13:57:04.125,-0.01123046875,0.015625,1.04443359375,0.0,0.0,0.0,0.5767822265625,0.230712890625,-56.6619873046875,1.0446108346206662,0.0
1783054624.125514,2026-07-03T13:57:04.125,-0.00830078125,0.01611328125,1.0458984375,0.0,0.0,0.0,0.5767822265625,0.230712890625,-56.6619873046875,1.0460554872314103,0.0
1783054624.125514,2026-07-03T13:57:04.125,-0.00927734375,0.0166015625,1.04296875,0.0,0.0,0.0,0.5767822265625,0.230712890625,-56.656494140625,1.0431421257245148,0.0
1783054624.125514,2026-07-03T13:57:04.125,-0.009765625,0.013671875,1.04345703125,0.0,0.0,0.0,0.5767822265625,0.2362060546875,-56.656494140625,1.04359228804295,0.0
1783054624.125514,2026-07-03T13:57:04.125,-0.0087890625,0.0166015625,1.04248046875,0.0,0.0,0.0,0.5767822265625,0.2362060546875,-56.656494140625,1.0426496953542403,0.0
1783054624.125514,2026-07-03T13:57:04.125,-0.0107421875,0.015625,1.04150390625,0.0,0.0,0.0,0.582275390625,0.2362060546875,-56.656494140625,1.0416764958235805,0.0
1783054624.125514,2026-07-03T13:57:04.125,-0.01123046875,0.01611328125,1.04443359375,0.0,0.0,0.0,0.582275390625,0.2362060546875,-56.656494140625,1.0446182522886178,0.0
1783054624.125514,2026-07-03T13:57:04.125,-0.00927734375,0.0166015625,1.04296875,0.0,0.0,0.0,0.582275390625,0.2362060546875,-56.656494140625,1.0431421257245148,0.0
1783054624.1715121,2026-07-03T13:57:04.171,-0.00927734375,0.01708984375,1.0419921875,0.0,0.0,0.0,0.582275390625,0.2362060546875,-56.656494140625,1.0421736182985493,0.0
1783054624.1715121,2026-07-03T13:57:04.171,-0.01025390625,0.0166015625,1.0439453125,0.0,0.0,0.0,0.582275390625,0.24169921875,-56.656494140625,1.0441276598010167,0.0
1783054624.1715121,2026-07-03T13:57:04.171,-0.00927734375,0.01513671875,1.0439453125,0.0,0.0,0.0,0.582275390625,0.24169921875,-56.656494140625,1.0440962622537708,0.0
1783054624.1715121,2026-07-03T13:57:04.171,-0.009765625,0.015625,1.04296875,0.0,0.0,0.0,0.5877685546875,0.24169921875,-56.656494140625,1.0431314977188653,0.0
1783054624.1715121,2026-07-03T13:57:04.171,-0.009765625,0.01513671875,1.0439453125,0.0,0.0,0.0,0.5877685546875,0.24169921875,-56.656494140625,1.04410071505429,0.0
1783054624.1715121,2026-07-03T13:57:04.171,-0.0087890625,0.0146484375,1.04248046875,0.0,0.0,0.0,0.5877685546875,0.24169921875,-56.6510009765625,1.0426204256900207,0.0
1783054624.1715121,2026-07-03T13:57:04.171,-0.009765625,0.013671875,1.04296875,0.0,0.0,0.0,0.5877685546875,0.24169921875,-56.6510009765625,1.0431040701072058,0.0
1783054624.1715121,2026-07-03T13:57:04.171,-0.0068359375,0.013671875,1.04345703125,0.0,0.0,0.0,0.5877685546875,0.2471923828125,-56.6510009765625,1.043568984913112,0.0
1783054624.2233822,2026-07-03T13:57:04.223,-0.01025390625,0.0166015625,1.04296875,0.0,0.0,0.0,0.5877685546875,0.2471923828125,-56.6510009765625,1.0431512680083304,0.0
1783054624.2233822,2026-07-03T13:57:04.223,-0.009765625,0.015625,1.0439453125,0.0,0.0,0.0,0.5877685546875,0.2471923828125,-56.6510009765625,1.0441079079996298,0.0
1783054624.2233822,2026-07-03T13:57:04.223,-0.009765625,0.017578125,1.04443359375,0.0,0.0,0.0,0.59326171875,0.2471923828125,-56.6510009765625,1.0446271534206337,0.0
1783054624.2233822,2026-07-03T13:57:04.223,-0.01123046875,0.013671875,1.041015625,0.0,0.0,0.0,0.59326171875,0.2471923828125,-56.6510009765625,1.0411659690407198,0.0
1783054624.2233822,2026-07-03T13:57:04.223,-0.0107421875,0.0146484375,1.0439453125,0.0,0.0,0.0,0.59326171875,0.2471923828125,-56.6510009765625,1.0441033410559508,0.0
1783054624.2233822,2026-07-03T13:57:04.223,-0.00927734375,0.0146484375,1.04345703125,0.0,0.0,0.0,0.59326171875,0.2471923828125,-56.6510009765625,1.0436010836968839,0.0
1783054624.2233822,2026-07-03T13:57:04.223,-0.01123046875,0.0146484375,1.04345703125,0.0,0.0,0.0,0.59326171875,0.252685546875,-56.6510009765625,1.043620273957247,0.0
1783054624.2233822,2026-07-03T13:57:04.223,-0.00927734375,0.0166015625,1.04345703125,0.0,0.0,0.0,0.59326171875,0.252685546875,-56.6510009765625,1.0436303258575617,0.0
1783054624.2589202,2026-07-03T13:57:04.258,-0.0087890625,0.01513671875,1.04345703125,0.0,0.0,0.0,0.59326171875,0.252685546875,-56.6510009765625,1.043603825184255,0.0
1783054624.2589202,2026-07-03T13:57:04.258,-0.009765625,0.01416015625,1.04443359375,0.0,0.0,0.0,0.5987548828125,0.252685546875,-56.6455078125,1.0445752290812784,0.0
1783054624.2589202,2026-07-03T13:57:04.258,-0.0078125,0.0166015625,1.04345703125,0.0,0.0,0.0,0.5987548828125,0.252685546875,-56.6455078125,1.0436183321017098,0.0
1783054624.2589202,2026-07-03T13:57:04.258,-0.00927734375,0.01513671875,1.04052734375,0.0,0.0,0.0,0.5987548828125,0.252685546875,-56.6455078125,1.0406787892779419,0.0
1783054624.2589202,2026-07-03T13:57:04.258,-0.0087890625,0.01416015625,1.04345703125,0.0,0.0,0.0,0.5987548828125,0.2581787109375,-56.6455078125,1.0435901176753817,0.0
1783054624.2589202,2026-07-03T13:57:04.258,-0.00927734375,0.0146484375,1.04345703125,0.0,0.0,0.0,0.5987548828125,0.2581787109375,-56.6455078125,1.0436010836968839,0.0
1783054624.2599266,2026-07-03T13:57:04.259,-0.00927734375,0.01513671875,1.04248046875,0.0,0.0,0.0,0.5987548828125,0.2581787109375,-56.6455078125,1.042631630580423,0.0
1783054624.2599266,2026-07-03T13:57:04.259,-0.01025390625,0.01611328125,1.0419921875,0.0,0.0,0.0,0.5987548828125,0.2581787109375,-56.6455078125,1.0421672127048809,0.0
1783054624.2874477,2026-07-03T13:57:04.287,-0.01025390625,0.01708984375,1.04296875,0.0,0.0,0.0,0.5987548828125,0.2581787109375,-56.6455078125,1.043159153163766,0.0
1783054624.2874477,2026-07-03T13:57:04.287,-0.00927734375,0.01416015625,1.044921875,0.0,0.0,0.0,0.604248046875,0.2581787109375,-56.6455078125,1.0450589954570009,0.0
1783054624.2874477,2026-07-03T13:57:04.287,-0.0078125,0.01416015625,1.04150390625,0.0,0.0,0.0,0.604248046875,0.2581787109375,-56.6455078125,1.0416294599881875,0.0
1783054624.2874477,2026-07-03T13:57:04.287,-0.0107421875,0.015625,1.04248046875,0.0,0.0,0.0,0.604248046875,0.263671875,-56.6455078125,1.0426528966739146,0.0
1783054624.2874477,2026-07-03T13:57:04.287,-0.01123046875,0.01806640625,1.044921875,0.0,0.0,0.0,0.604248046875,0.263671875,-56.6455078125,1.0451383847685676,0.0
1783054624.2874477,2026-07-03T13:57:04.287,-0.00830078125,0.01513671875,1.04248046875,0.0,0.0,0.0,0.604248046875,0.263671875,-56.6455078125,1.0426233984277817,0.0
1783054624.2874477,2026-07-03T13:57:04.287,-0.00927734375,0.0146484375,1.04248046875,0.0,0.0,0.0,0.604248046875,0.263671875,-56.6400146484375,1.0426246561219752,0.0
1783054624.2874477,2026-07-03T13:57:04.287,-0.00927734375,0.01611328125,1.04150390625,0.0,0.0,0.0,0.604248046875,0.263671875,-56.6400146484375,1.0416698582918227,0.0
1783054624.3341098,2026-07-03T13:57:04.334,-0.00927734375,0.0146484375,1.0439453125,0.0,0.0,0.0,0.6097412109375,0.263671875,-56.6400146484375,1.0440892975789808,0.0
1783054624.3341098,2026-07-03T13:57:04.334,-0.0107421875,0.0146484375,1.04248046875,0.0,0.0,0.0,0.6097412109375,0.263671875,-56.6400146484375,1.0426387193264484,0.0
1783054624.3341098,2026-07-03T13:57:04.334,-0.0087890625,0.015625,1.041015625,0.0,0.0,0.0,0.6097412109375,0.2691650390625,-56.6400146484375,1.0411699763913524,0.0
1783054624.3341098,2026-07-03T13:57:04.334,-0.01171875,0.01611328125,1.04296875,0.0,0.0,0.0,0.6097412109375,0.2691650390625,-56.6400146484375,1.0431590388865768,0.0
1783054624.3341098,2026-07-03T13:57:04.334,-0.01123046875,0.015625,1.04248046875,0.0,0.0,0.0,0.6097412109375,0.2691650390625,-56.6400146484375,1.0426580416313704,0.0
1783054624.3341098,2026-07-03T13:57:04.334,-0.0087890625,0.0146484375,1.04150390625,0.0,0.0,0.0,0.6097412109375,0.2691650390625,-56.6400146484375,1.0416439944025162,0.0
1783054624.3341098,2026-07-03T13:57:04.334,-0.0107421875,0.01416015625,1.04296875,0.0,0.0,0.0,0.6097412109375,0.2691650390625,-56.6400146484375,1.0431201839164421,0.0
1783054624.3341098,2026-07-03T13:57:04.334,-0.01025390625,0.01318359375,1.04150390625,0.0,0.0,0.0,0.6097412109375,0.2691650390625,-56.6400146484375,1.0416378144401046,0.0
1783054624.3775966,2026-07-03T13:57:04.377,-0.01025390625,0.015625,1.0439453125,0.0,0.0,0.0,0.615234375,0.274658203125,-56.6400146484375,1.0441125890961696,0.0
1783054624.3775966,2026-07-03T13:57:04.377,-0.00927734375,0.0126953125,1.0419921875,0.0,0.0,0.0,0.615234375,0.274658203125,-56.6400146484375,1.0421108189043828,0.0
1783054624.3775966,2026-07-03T13:57:04.377,-0.00830078125,0.015625,1.046875,0.0,0.0,0.0,0.615234375,0.274658203125,-56.634521484375,1.0470245026833709,0.0
1783054624.3775966,2026-07-03T13:57:04.377,-0.0078125,0.01513671875,1.04345703125,0.0,0.0,0.0,0.615234375,0.274658203125,-56.634521484375,1.043596057617999,0.0
1783054624.3775966,2026-07-03T13:57:04.377,-0.01025390625,0.0146484375,1.04150390625,0.0,0.0,0.0,0.615234375,0.274658203125,-56.634521484375,1.0416573841952947,0.0
1783054624.3775966,2026-07-03T13:57:04.377,-0.00927734375,0.013671875,1.0439453125,0.0,0.0,0.0,0.615234375,0.274658203125,-56.634521484375,1.0440760531512032,0.0
1783054624.3775966,2026-07-03T13:57:04.377,-0.00927734375,0.0146484375,1.0400390625,0.0,0.0,0.0,0.615234375,0.274658203125,-56.634521484375,1.040183588293012,0.0
1783054624.3775966,2026-07-03T13:57:04.377,-0.01123046875,0.0166015625,1.04345703125,0.0,0.0,0.0,0.615234375,0.2801513671875,-56.634521484375,1.0436495155802303,0.0
1783054624.4154751,2026-07-03T13:57:04.415,-0.01025390625,0.015625,1.04248046875,0.0,0.0,0.0,0.6207275390625,0.2801513671875,-56.634521484375,1.0426479803575144,0.0
1783054624.4154751,2026-07-03T13:57:04.415,-0.0087890625,0.01220703125,1.04541015625,0.0,0.0,0.0,0.6207275390625,0.2801513671875,-56.634521484375,1.0455183661812053,0.0
1783054624.4154751,2026-07-03T13:57:04.415,-0.0107421875,0.01513671875,1.04345703125,0.0,0.0,0.0,0.6207275390625,0.2801513671875,-56.634521484375,1.0436221015826874,0.0
1783054624.4154751,2026-07-03T13:57:04.415,-0.009765625,0.015625,1.0419921875,0.0,0.0,0.0,0.6207275390625,0.2801513671875,-56.634521484375,1.042155087723356,0.0
1783054624.4154751,2026-07-03T13:57:04.415,-0.0107421875,0.01416015625,1.04296875,0.0,0.0,0.0,0.6207275390625,0.2801513671875,-56.634521484375,1.0431201839164421,0.0
1783054624.4154751,2026-07-03T13:57:04.415,-0.009765625,0.0146484375,1.04345703125,0.0,0.0,0.0,0.6207275390625,0.2801513671875,-56.634521484375,1.0436055386102048,0.0
1783054624.4154751,2026-07-03T13:57:04.415,-0.00927734375,0.0146484375,1.04150390625,0.0,0.0,0.0,0.6207275390625,0.2801513671875,-56.634521484375,1.0416482288000377,0.0
1783054624.4164858,2026-07-03T13:57:04.416,-0.009765625,0.01416015625,1.04345703125,0.0,0.0,0.0,0.6207275390625,0.28564453125,-56.634521484375,1.0435987991185733,0.0
1783054624.452751,2026-07-03T13:57:04.452,-0.00927734375,0.01513671875,1.04296875,0.0,0.0,0.0,0.6207275390625,0.28564453125,-56.6290283203125,1.0431198410720288,0.0
1783054624.452751,2026-07-03T13:57:04.452,-0.009765625,0.01513671875,1.04345703125,0.0,0.0,0.0,0.626220703125,0.28564453125,-56.6290283203125,1.0436125065134187,0.0
1783054624.452751,2026-07-03T13:57:04.452,-0.00830078125,0.01513671875,1.04150390625,0.0,0.0,0.0,0.626220703125,0.28564453125,-56.6290283203125,1.0416469699268969,0.0
1783054624.452751,2026-07-03T13:57:04.452,-0.0087890625,0.013671875,1.04296875,0.0,0.0,0.0,0.626220703125,0.28564453125,-56.6290283203125,1.0430953845464983,0.0
1783054624.452751,2026-07-03T13:57:04.452,-0.01025390625,0.017578125,1.04345703125,0.0,0.0,0.0,0.626220703125,0.28564453125,-56.6290283203125,1.043655455184786,0.0
1783054624.452751,2026-07-03T13:57:04.452,-0.01025390625,0.0146484375,1.04248046875,0.0,0.0,0.0,0.626220703125,0.28564453125,-56.6290283203125,1.0426338029431979,0.0
1783054624.452751,2026-07-03T13:57:04.452,-0.01123046875,0.01806640625,1.0419921875,0.0,0.0,0.0,0.626220703125,0.2911376953125,-56.6290283203125,1.0422093058854205,0.0
1783054624.452751,2026-07-03T13:57:04.452,-0.0087890625,0.015625,1.0439453125,0.0,0.0,0.0,0.626220703125,0.2911376953125,-56.6290283203125,1.0440992307895602,0.0
1783054624.500802,2026-07-03T13:57:04.500,-0.0087890625,0.0146484375,1.04443359375,0.0,0.0,0.0,0.626220703125,0.2911376953125,-56.6290283203125,1.0445732890009969,0.0
1783054624.500802,2026-07-03T13:57:04.501,-0.01025390625,0.01708984375,1.04345703125,0.0,0.0,0.0,0.626220703125,0.2911376953125,-56.6290283203125,1.0436473453316721,0.0
1783054624.5017767,2026-07-03T13:57:04.501,-0.0107421875,0.0146484375,1.04150390625,0.0,0.0,0.0,0.6317138671875,0.2911376953125,-56.6290283203125,1.0416623051869955,0.0
1783054624.5017767,2026-07-03T13:57:04.501,-0.01123046875,0.013671875,1.04296875,0.0,0.0,0.0,0.6317138671875,0.2911376953125,-56.6290283203125,1.043118812538113,0.0
1783054624.5017767,2026-07-03T13:57:04.501,-0.01025390625,0.01513671875,1.04345703125,0.0,0.0,0.0,0.6317138671875,0.2911376953125,-56.6290283203125,1.043617189832059,0.0
1783054624.5017767,2026-07-03T13:57:04.501,-0.0107421875,0.01416015625,1.04248046875,0.0,0.0,0.0,0.6317138671875,0.296630859375,-56.62353515625,1.0426319735853726,0.0
1783054624.5017767,2026-07-03T13:57:04.501,-0.00927734375,0.01220703125,1.041015625,0.0,0.0,0.0,0.6317138671875,0.296630859375,-56.62353515625,1.041128528190989,0.0
1783054624.5017767,2026-07-03T13:57:04.501,-0.01318359375,0.0126953125,1.04296875,0.0,0.0,0.0,0.6317138671875,0.296630859375,-56.62353515625,1.043129326392562,0.0
1783054624.5304973,2026-07-03T13:57:04.530,-0.00927734375,0.01318359375,1.04443359375,0.0,0.0,0.0,0.6317138671875,0.296630859375,-56.62353515625,1.0445579964773428,0.0
1783054624.5304973,2026-07-03T13:57:04.530,-0.009765625,0.01611328125,1.0439453125,0.0,0.0,0.0,0.6317138671875,0.296630859375,-56.62353515625,1.0441153292405034,0.0
1783054624.5304973,2026-07-03T13:57:04.530,-0.009765625,0.01513671875,1.0439453125,0.0,0.0,0.0,0.6317138671875,0.296630859375,-56.62353515625,1.04410071505429,0.0
1783054624.5304973,2026-07-03T13:57:04.530,-0.01123046875,0.01611328125,1.0439453125,0.0,0.0,0.0,0.63720703125,0.296630859375,-56.62353515625,1.0441300573930956,0.0
1783054624.5304973,2026-07-03T13:57:04.530,-0.009765625,0.01416015625,1.044921875,0.0,0.0,0.0,0.63720703125,0.3021240234375,-56.62353515625,1.0450634441555118,0.0
1783054624.5304973,2026-07-03T13:57:04.530,-0.01123046875,0.0166015625,1.041015625,0.0,0.0,0.0,0.63720703125,0.3021240234375,-56.62353515625,1.0412085606639656,0.0
1783054624.5304973,2026-07-03T13:57:04.530,-0.0107421875,0.0146484375,1.04150390625,0.0,0.0,0.0,0.63720703125,0.3021240234375,-56.62353515625,1.0416623051869955,0.0
1783054624.5304973,2026-07-03T13:57:04.530,-0.009765625,0.01708984375,1.04248046875,0.0,0.0,0.0,0.63720703125,0.3021240234375,-56.62353515625,1.0426662735104937,0.0
1783054624.5845156,2026-07-03T13:57:04.584,-0.009765625,0.015625,1.0439453125,0.0,0.0,0.0,0.63720703125,0.3021240234375,-56.62353515625,1.0441079079996298,0.0
1783054624.5845156,2026-07-03T13:57:04.584,-0.01025390625,0.015625,1.044921875,0.0,0.0,0.0,0.63720703125,0.3021240234375,-56.62353515625,1.045088995287913,0.0
1783054624.5845156,2026-07-03T13:57:04.584,-0.0078125,0.015625,1.0439453125,0.0,0.0,0.0,0.63720703125,0.3021240234375,-56.62353515625,1.0440914669088972,0.0
1783054624.5845156,2026-07-03T13:57:04.584,-0.01025390625,0.013671875,1.04345703125,0.0,0.0,0.0,0.63720703125,0.3076171875,-56.62353515625,1.043596971452324,0.0
1783054624.5845156,2026-07-03T13:57:04.584,-0.01025390625,0.015625,1.0439453125,0.0,0.0,0.0,0.6427001953125,0.3076171875,-56.6180419921875,1.0441125890961696,0.0
1783054624.5845156,2026-07-03T13:57:04.584,-0.00927734375,0.01611328125,1.041015625,0.0,0.0,0.0,0.6427001953125,0.3076171875,-56.6180419921875,1.0411816548680821,0.0
1783054624.5845156,2026-07-03T13:57:04.584,-0.0078125,0.01513671875,1.04345703125,0.0,0.0,0.0,0.6427001953125,0.3076171875,-56.6180419921875,1.043596057617999,0.0
1783054624.5845156,2026-07-03T13:57:04.584,-0.00830078125,0.0166015625,1.04296875,0.0,0.0,0.0,0.6427001953125,0.3076171875,-56.6180419921875,1.0431338976005737,0.0
1783054624.6721368,2026-07-03T13:57:04.672,-0.00830078125,0.015625,1.04541015625,0.0,0.0,0.0,0.6427001953125,0.3076171875,-56.6180419921875,1.0455598683887068,0.0
1783054624.6721368,2026-07-03T13:57:04.672,-0.00927734375,0.013671875,1.04443359375,0.0,0.0,0.0,0.6427001953125,0.3076171875,-56.6180419921875,1.0445642732865275,0.0
1783054624.6721368,2026-07-03T13:57:04.672,-0.0087890625,0.01513671875,1.0419921875,0.0,0.0,0.0,0.6427001953125,0.3076171875,-56.6180419921875,1.0421391877696475,0.0
1783054624.6721368,2026-07-03T13:57:04.672,-0.01123046875,0.01611328125,1.04248046875,0.0,0.0,0.0,0.6427001953125,0.3131103515625,-56.6180419921875,1.0426654731917644,0.0
1783054624.6721368,2026-07-03T13:57:04.672,-0.0078125,0.01416015625,1.0439453125,0.0,0.0,0.0,0.6427001953125,0.3131103515625,-56.6180419921875,1.044070572649185,0.0
1783054624.6721368,2026-07-03T13:57:04.672,-0.0107421875,0.01416015625,1.04443359375,0.0,0.0,0.0,0.6427001953125,0.3131103515625,-56.6180419921875,1.0445848153074262,0.0
1783054624.6721368,2026-07-03T13:57:04.672,-0.0078125,0.01708984375,1.0439453125,0.0,0.0,0.0,0.648193359375,0.3131103515625,-56.6180419921875,1.0441144158598579,0.0
1783054624.6721368,2026-07-03T13:57:04.672,-0.01025390625,0.015625,1.04296875,0.0,0.0,0.0,0.648193359375,0.3131103515625,-56.6180419921875,1.0431361831970676,0.0
1783054624.6741366,2026-07-03T13:57:04.674,-0.0107421875,0.01513671875,1.04150390625,0.0,0.0,0.0,0.648193359375,0.3131103515625,-56.6180419921875,1.041669286088829,0.0
1783054624.6741366,2026-07-03T13:57:04.674,-0.01025390625,0.015625,1.04345703125,0.0,0.0,0.0,0.648193359375,0.3131103515625,-56.6180419921875,1.043624386109987,0.0
1783054624.6741366,2026-07-03T13:57:04.674,-0.00927734375,0.013671875,1.04541015625,0.0,0.0,0.0,0.648193359375,0.3131103515625,-56.6180419921875,1.0455407137284136,0.0
1783054624.6741366,2026-07-03T13:57:04.674,-0.01123046875,0.017578125,1.0439453125,0.0,0.0,0.0,0.648193359375,0.318603515625,-56.612548828125,1.0441536905061357,0.0
1783054624.6741366,2026-07-03T13:57:04.674,-0.01220703125,0.01611328125,1.04443359375,0.0,0.0,0.0,0.648193359375,0.318603515625,-56.612548828125,1.0446292075172512,0.0
1783054624.6741366,2026-07-03T13:57:04.674,-0.0087890625,0.0146484375,1.0419921875,0.0,0.0,0.0,0.648193359375,0.318603515625,-56.612548828125,1.0421322100155312,0.0
1783054624.6741366,2026-07-03T13:57:04.674,-0.0087890625,0.0166015625,1.0419921875,0.0,0.0,0.0,0.648193359375,0.318603515625,-56.612548828125,1.04216149339155,0.0
1783054624.6741366,2026-07-03T13:57:04.674,-0.00927734375,0.01513671875,1.04248046875,0.0,0.0,0.0,0.6536865234375,0.318603515625,-56.612548828125,1.042631630580423,0.0
1783054624.6959286,2026-07-03T13:57:04.695,-0.00830078125,0.01416015625,1.04345703125,0.0,0.0,0.0,0.6536865234375,0.318603515625,-56.612548828125,1.043586119618045,0.0
1783054624.6959286,2026-07-03T13:57:04.695,-0.01171875,0.015625,1.0439453125,0.0,0.0,0.0,0.6536865234375,0.318603515625,-56.612548828125,1.0441280023145079,0.0
1783054624.6959286,2026-07-03T13:57:04.695,-0.0107421875,0.01318359375,1.04345703125,0.0,0.0,0.0,0.6536865234375,0.318603515625,-56.612548828125,1.0435956007005365,0.0
1783054624.6959286,2026-07-03T13:57:04.695,-0.01025390625,0.0146484375,1.0439453125,0.0,0.0,0.0,0.6536865234375,0.3240966796875,-56.612548828125,1.0440984315692166,0.0
1783054624.6959286,2026-07-03T13:57:04.695,-0.01025390625,0.0146484375,1.044921875,0.0,0.0,0.0,0.6536865234375,0.3240966796875,-56.612548828125,1.0450748509882395,0.0
1783054624.6959286,2026-07-03T13:57:04.695,-0.01025390625,0.01416015625,1.04248046875,0.0,0.0,0.0,0.6536865234375,0.3240966796875,-56.612548828125,1.0426270571703133,0.0
1783054624.6959286,2026-07-03T13:57:04.695,-0.009765625,0.013671875,1.041015625,0.0,0.0,0.0,0.6536865234375,0.3240966796875,-56.612548828125,1.0411511989580557,0.0
1783054624.6959286,2026-07-03T13:57:04.695,-0.01025390625,0.0146484375,1.04248046875,0.0,0.0,0.0,0.6536865234375,0.3240966796875,-56.612548828125,1.0426338029431979,0.0
1783054624.7590938,2026-07-03T13:57:04.759,-0.009765625,0.0166015625,1.04248046875,0.0,0.0,0.0,0.6536865234375,0.3240966796875,-56.612548828125,1.0426583846276314,0.0
1783054624.7590938,2026-07-03T13:57:04.759,-0.0087890625,0.015625,1.04345703125,0.0,0.0,0.0,0.6591796875,0.3240966796875,-56.612548828125,1.0436110215543397,0.0
1783054624.7590938,2026-07-03T13:57:04.759,-0.01123046875,0.01708984375,1.04345703125,0.0,0.0,0.0,0.6591796875,0.3240966796875,-56.612548828125,1.043657396971251,0.0
1783054624.7590938,2026-07-03T13:57:04.759,-0.009765625,0.01904296875,1.04296875,0.0,0.0,0.0,0.6591796875,0.32958984375,-56.6070556640625,1.0431882934384455,0.0
1783054624.7590938,2026-07-03T13:57:04.759,-0.009765625,0.01611328125,1.04248046875,0.0,0.0,0.0,0.6591796875,0.32958984375,-56.6070556640625,1.0426507243509218,0.0
1783054624.7590938,2026-07-03T13:57:04.759,-0.009765625,0.0146484375,1.044921875,0.0,0.0,0.0,0.6591796875,0.32958984375,-56.6070556640625,1.04507017420188,0.0
1783054624.7590938,2026-07-03T13:57:04.759,-0.01171875,0.013671875,1.0439453125,0.0,0.0,0.0,0.6591796875,0.32958984375,-56.6070556640625,1.044100600880155,0.0
1783054624.7590938,2026-07-03T13:57:04.759,-0.01123046875,0.01513671875,1.04296875,0.0,0.0,0.0,0.6591796875,0.32958984375,-56.6070556640625,1.0431390401856426,0.0
1783054624.7859147,2026-07-03T13:57:04.785,-0.009765625,0.015625,1.0439453125,0.0,0.0,0.0,0.6591796875,0.32958984375,-56.6070556640625,1.0441079079996298,0.0
1783054624.7859147,2026-07-03T13:57:04.785,-0.01025390625,0.0146484375,1.04638671875,0.0,0.0,0.0,0.6591796875,0.32958984375,-56.6070556640625,1.046539480617414,0.0
1783054624.7859147,2026-07-03T13:57:04.785,-0.01171875,0.015625,1.041015625,0.0,0.0,0.0,0.6591796875,0.32958984375,-56.6070556640625,1.0411988288606087,0.0
1783054624.7859147,2026-07-03T13:57:04.785,-0.0087890625,0.0146484375,1.0439453125,0.0,0.0,0.0,0.6646728515625,0.3350830078125,-56.6070556640625,1.0440850730814721,0.0
1783054624.7859147,2026-07-03T13:57:04.785,-0.01220703125,0.01416015625,1.041015625,0.0,0.0,0.0,0.6646728515625,0.3350830078125,-56.6070556640625,1.041183486774115,0.0
1783054624.7859147,2026-07-03T13:57:04.785,-0.009765625,0.01416015625,1.0419921875,0.0,0.0,0.0,0.6646728515625,0.3350830078125,-56.6070556640625,1.0421341546402267,0.0
1783054624.7859147,2026-07-03T13:57:04.785,-0.00830078125,0.0146484375,1.04541015625,0.0,0.0,0.0,0.6646728515625,0.3350830078125,-56.6070556640625,1.0455457304590752,0.0
1783054624.7859147,2026-07-03T13:57:04.785,-0.01025390625,0.0166015625,1.04296875,0.0,0.0,0.0,0.6646728515625,0.3350830078125,-56.6070556640625,1.0431512680083304,0.0
1783054624.812418,2026-07-03T13:57:04.812,-0.01123046875,0.0146484375,1.0439453125,0.0,0.0,0.0,0.6646728515625,0.3350830078125,-56.6070556640625,1.044108478866185,0.0
1783054624.812418,2026-07-03T13:57:04.812,-0.00830078125,0.01416015625,1.04345703125,0.0,0.0,0.0,0.6646728515625,0.3350830078125,-56.6070556640625,1.043586119618045,0.0
1783054624.812418,2026-07-03T13:57:04.812,-0.00927734375,0.01513671875,1.0439453125,0.0,0.0,0.0,0.6646728515625,0.3350830078125,-56.6070556640625,1.0440962622537708,0.0
1783054624.812418,2026-07-03T13:57:04.812,-0.00927734375,0.0166015625,1.04345703125,0.0,0.0,0.0,0.6646728515625,0.340576171875,-56.6015625,1.0436303258575617,0.0
1783054624.812418,2026-07-03T13:57:04.812,-0.00830078125,0.015625,1.0439453125,0.0,0.0,0.0,0.6646728515625,0.340576171875,-56.6015625,1.0440952346817234,0.0
1783054624.812418,2026-07-03T13:57:04.812,-0.0107421875,0.015625,1.0419921875,0.0,0.0,0.0,0.670166015625,0.340576171875,-56.6015625,1.0421646962108821,0.0
1783054624.812418,2026-07-03T13:57:04.812,-0.0087890625,0.013671875,1.04248046875,0.0,0.0,0.0,0.670166015625,0.340576171875,-56.6015625,1.0426071626028972,0.0
1783054624.812418,2026-07-03T13:57:04.812,-0.01171875,0.01513671875,1.04150390625,0.0,0.0,0.0,0.670166015625,0.340576171875,-56.6015625,1.041679814573599,0.0
1783054624.8753214,2026-07-03T13:57:04.875,-0.00927734375,0.0146484375,1.0439453125,0.0,0.0,0.0,0.670166015625,0.340576171875,-56.6015625,1.0440892975789808,0.0
1783054624.8753214,2026-07-03T13:57:04.875,-0.01025390625,0.015625,1.04248046875,0.0,0.0,0.0,0.670166015625,0.340576171875,-56.6015625,1.0426479803575144,0.0
1783054624.8753214,2026-07-03T13:57:04.875,-0.0078125,0.01708984375,1.04296875,0.0,0.0,0.0,0.670166015625,0.340576171875,-56.6015625,1.043138011670657,0.0
1783054624.8753214,2026-07-03T13:57:04.875,-0.009765625,0.01513671875,1.04150390625,0.0,0.0,0.0,0.670166015625,0.340576171875,-56.6015625,1.0416596730315357,0.0
1783054624.8753214,2026-07-03T13:57:04.875,-0.00927734375,0.0146484375,1.04248046875,0.0,0.0,0.0,0.670166015625,0.3460693359375,-56.6015625,1.0426246561219752,0.0
1783054624.8753214,2026-07-03T13:57:04.875,-0.0107421875,0.0146484375,1.0439453125,0.0,0.0,0.0,0.670166015625,0.3460693359375,-56.6015625,1.0441033410559508,0.0
1783054624.8753214,2026-07-03T13:57:04.875,-0.01025390625,0.01708984375,1.0419921875,0.0,0.0,0.0,0.670166015625,0.3460693359375,-56.6015625,1.0421827690783505,0.0
1783054624.8753214,2026-07-03T13:57:04.875,-0.0078125,0.0146484375,1.04248046875,0.0,0.0,0.0,0.6756591796875,0.3460693359375,-56.6015625,1.0426126507973423,0.0
1783054624.9031663,2026-07-03T13:57:04.903,-0.009765625,0.01513671875,1.04345703125,0.0,0.0,0.0,0.6756591796875,0.3460693359375,-56.6015625,1.0436125065134187,0.0
1783054624.9031663,2026-07-03T13:57:04.903,-0.00927734375,0.01513671875,1.0419921875,0.0,0.0,0.0,0.6756591796875,0.3460693359375,-56.6015625,1.0421434201551183,0.0
1783054624.9031663,2026-07-03T13:57:04.903,-0.00732421875,0.01611328125,1.04248046875,0.0,0.0,0.0,0.6756591796875,0.3460693359375,-56.6015625,1.042630715900006,0.0
1783054624.9031663,2026-07-03T13:57:04.903,-0.00927734375,0.01611328125,1.04296875,0.0,0.0,0.0,0.6756591796875,0.3460693359375,-56.6015625,1.0431344690001667,0.0
1783054624.9031663,2026-07-03T13:57:04.903,-0.00927734375,0.01513671875,1.04248046875,0.0,0.0,0.0,0.6756591796875,0.3460693359375,-56.6015625,1.042631630580423,0.0
1783054624.9031663,2026-07-03T13:57:04.903,-0.00927734375,0.015625,1.04150390625,0.0,0.0,0.0,0.6756591796875,0.3515625,-56.5960693359375,1.0416624196283863,0.0
1783054624.9031663,2026-07-03T13:57:04.903,-0.01025390625,0.01708984375,1.04345703125,0.0,0.0,0.0,0.6756591796875,0.3515625,-56.5960693359375,1.0436473453316721,0.0
1783054624.9031663,2026-07-03T13:57:04.903,-0.00927734375,0.01611328125,1.0439453125,0.0,0.0,0.0,0.6756591796875,0.3515625,-56.5960693359375,1.044110876502309,0.0
1783054624.9399185,2026-07-03T13:57:04.939,-0.0087890625,0.01708984375,1.0439453125,0.0,0.0,0.0,0.6756591796875,0.3515625,-56.5960693359375,1.0441221795698772,0.0
1783054624.9399185,2026-07-03T13:57:04.939,-0.0087890625,0.01611328125,1.04296875,0.0,0.0,0.0,0.6756591796875,0.3515625,-56.5960693359375,1.043130240635767,0.0
1783054624.9399185,2026-07-03T13:57:04.939,-0.0107421875,0.013671875,1.04296875,0.0,0.0,0.0,0.68115234375,0.3515625,-56.5960693359375,1.043113669853321,0.0
1783054624.9399185,2026-07-03T13:57:04.939,-0.00830078125,0.01513671875,1.041015625,0.0,0.0,0.0,0.68115234375,0.3515625,-56.5960693359375,1.0411587557707123,0.0
1783054624.9399185,2026-07-03T13:57:04.939,-0.009765625,0.01513671875,1.04443359375,0.0,0.0,0.0,0.68115234375,0.3515625,-56.5960693359375,1.0445889236631305,0.0
1783054624.9399185,2026-07-03T13:57:04.939,-0.0087890625,0.015625,1.04150390625,0.0,0.0,0.0,0.68115234375,0.3515625,-56.5960693359375,1.0416581852885511,0.0
1783054624.9399185,2026-07-03T13:57:04.939,-0.009765625,0.01513671875,1.04345703125,0.0,0.0,0.0,0.68115234375,0.3515625,-56.5960693359375,1.0436125065134187,0.0
1783054624.9399185,2026-07-03T13:57:04.939,-0.00927734375,0.0166015625,1.0458984375,0.0,0.0,0.0,0.68115234375,0.3570556640625,-56.5960693359375,1.046071327658606,0.0
1783054624.993455,2026-07-03T13:57:04.993,-0.01025390625,0.017578125,1.04296875,0.0,0.0,0.0,0.68115234375,0.3570556640625,-56.5960693359375,1.0431672668122125,0.0
1783054624.993455,2026-07-03T13:57:04.993,-0.009765625,0.017578125,1.044921875,0.0,0.0,0.0,0.68115234375,0.3570556640625,-56.5960693359375,1.0451153442389371,0.0
1783054624.993455,2026-07-03T13:57:04.993,-0.0107421875,0.01611328125,1.04296875,0.0,0.0,0.0,0.68115234375,0.3570556640625,-56.5960693359375,1.0431485253315989,0.0
1783054624.993455,2026-07-03T13:57:04.993,-0.009765625,0.0166015625,1.04345703125,0.0,0.0,0.0,0.68115234375,0.3570556640625,-56.5960693359375,1.043634780646058,0.0
1783054624.993455,2026-07-03T13:57:04.993,-0.01025390625,0.0146484375,1.04345703125,0.0,0.0,0.0,0.6866455078125,0.3570556640625,-56.5960693359375,1.0436102219601142,0.0
1783054624.993455,2026-07-03T13:57:04.993,-0.00927734375,0.015625,1.04150390625,0.0,0.0,0.0,0.6866455078125,0.3570556640625,-56.5960693359375,1.0416624196283863,0.0
1783054624.993455,2026-07-03T13:57:04.993,-0.01025390625,0.01416015625,1.04248046875,0.0,0.0,0.0,0.6866455078125,0.3570556640625,-56.5960693359375,1.0426270571703133,0.0
1783054624.993455,2026-07-03T13:57:04.993,-0.00830078125,0.01611328125,1.0419921875,0.0,0.0,0.0,0.6866455078125,0.3570556640625,-56.590576171875,1.042149825895028,0.0
1783054625.0229545,2026-07-03T13:57:05.022,-0.01025390625,0.017578125,1.04248046875,0.0,0.0,0.0,0.6866455078125,0.3570556640625,-56.590576171875,1.042679078526619,0.0
1783054625.0229545,2026-07-03T13:57:05.022,-0.00927734375,0.0146484375,1.0439453125,0.0,0.0,0.0,0.6866455078125,0.3570556640625,-56.590576171875,1.0440892975789808,0.0
1783054625.0229545,2026-07-03T13:57:05.022,-0.0078125,0.0166015625,1.04248046875,0.0,0.0,0.0,0.6866455078125,0.362548828125,-56.590576171875,1.0426419206798234,0.0
1783054625.0229545,2026-07-03T13:57:05.022,-0.01123046875,0.0166015625,1.04248046875,0.0,0.0,0.0,0.6866455078125,0.362548828125,-56.590576171875,1.0426731333601178,0.0
1783054625.0229545,2026-07-03T13:57:05.022,-0.0107421875,0.013671875,1.04150390625,0.0,0.0,0.0,0.6866455078125,0.362548828125,-56.590576171875,1.0416490299003354,0.0
1783054625.0239518,2026-07-03T13:57:05.023,-0.009765625,0.01416015625,1.04443359375,0.0,0.0,0.0,0.6866455078125,0.362548828125,-56.590576171875,1.0445752290812784,0.0
1783054625.0239518,2026-07-03T13:57:05.023,-0.00927734375,0.0166015625,1.04296875,0.0,0.0,0.0,0.692138671875,0.362548828125,-56.590576171875,1.0431421257245148,0.0
1783054625.0239518,2026-07-03T13:57:05.023,-0.0107421875,0.015625,1.0439453125,0.0,0.0,0.0,0.692138671875,0.362548828125,-56.590576171875,1.0441174985163346,0.0
1783054625.0533288,2026-07-03T13:57:05.053,-0.009765625,0.01611328125,1.04248046875,0.0,0.0,0.0,0.692138671875,0.362548828125,-56.590576171875,1.0426507243509218,0.0
1783054625.0533288,2026-07-03T13:57:05.053,-0.01025390625,0.0166015625,1.04248046875,0.0,0.0,0.0,0.692138671875,0.362548828125,-56.590576171875,1.0426630722318908,0.0
1783054625.0533288,2026-07-03T13:57:05.053,-0.01171875,0.0166015625,1.04296875,0.0,0.0,0.0,0.692138671875,0.362548828125,-56.590576171875,1.0431666954305847,0.0
1783054625.0533288,2026-07-03T13:57:05.053,-0.01171875,0.01513671875,1.04345703125,0.0,0.0,0.0,0.692138671875,0.362548828125,-56.590576171875,1.0436326103668583,0.0
1783054625.0533288,2026-07-03T13:57:05.053,-0.00927734375,0.01513671875,1.0439453125,0.0,0.0,0.0,0.692138671875,0.3680419921875,-56.590576171875,1.0440962622537708,0.0
1783054625.0533288,2026-07-03T13:57:05.053,-0.0087890625,0.01416015625,1.04248046875,0.0,0.0,0.0,0.692138671875,0.3680419921875,-56.590576171875,1.0426136798305847,0.0
1783054625.0533288,2026-07-03T13:57:05.053,-0.00830078125,0.0166015625,1.044921875,0.0,0.0,0.0,0.692138671875,0.3680419921875,-56.590576171875,1.045086713962204,0.0
1783054625.0533288,2026-07-03T13:57:05.053,-0.01123046875,0.01318359375,1.0419921875,0.0,0.0,0.0,0.692138671875,0.3680419921875,-56.590576171875,1.0421360992612936,0.0
1783054625.1140673,2026-07-03T13:57:05.114,-0.0087890625,0.01416015625,1.0439453125,0.0,0.0,0.0,0.6976318359375,0.3680419921875,-56.590576171875,1.0440783366852202,0.0
1783054625.1140673,2026-07-03T13:57:05.114,-0.01171875,0.0146484375,1.0439453125,0.0,0.0,0.0,0.6976318359375,0.3680419921875,-56.590576171875,1.0441138449965486,0.0
1783054625.1140673,2026-07-03T13:57:05.114,-0.0107421875,0.01318359375,1.04296875,0.0,0.0,0.0,0.6976318359375,0.3680419921875,-56.5850830078125,1.0431073843152547,0.0
1783054625.1140673,2026-07-03T13:57:05.114,-0.01025390625,0.015625,1.04296875,0.0,0.0,0.0,0.6976318359375,0.3680419921875,-56.5850830078125,1.0431361831970676,0.0
1783054625.1140673,2026-07-03T13:57:05.114,-0.0078125,0.015625,1.04345703125,0.0,0.0,0.0,0.6976318359375,0.3680419921875,-56.5850830078125,1.0436032540416464,0.0
1783054625.1140673,2026-07-03T13:57:05.114,-0.009765625,0.01611328125,1.04345703125,0.0,0.0,0.0,0.6976318359375,0.3680419921875,-56.5850830078125,1.0436271275361453,0.0
1783054625.1140673,2026-07-03T13:57:05.114,-0.01025390625,0.01611328125,1.0419921875,0.0,0.0,0.0,0.6976318359375,0.37353515625,-56.5850830078125,1.0421672127048809,0.0
1783054625.1140673,2026-07-03T13:57:05.114,-0.0087890625,0.017578125,1.0439453125,0.0,0.0,0.0,0.6976318359375,0.37353515625,-56.5850830078125,1.044130285734911,0.0
1783054625.14367,2026-07-03T13:57:05.143,-0.01171875,0.01513671875,1.04150390625,0.0,0.0,0.0,0.6976318359375,0.37353515625,-56.5850830078125,1.041679814573599,0.0
1783054625.1446764,2026-07-03T13:57:05.144,-0.009765625,0.0126953125,1.04150390625,0.0,0.0,0.0,0.6976318359375,0.37353515625,-56.5850830078125,1.0416270566402939,0.0
1783054625.1446764,2026-07-03T13:57:05.144,-0.009765625,0.01416015625,1.0419921875,0.0,0.0,0.0,0.6976318359375,0.37353515625,-56.5850830078125,1.0421341546402267,0.0
1783054625.1446764,2026-07-03T13:57:05.144,-0.009765625,0.01806640625,1.04248046875,0.0,0.0,0.0,0.6976318359375,0.37353515625,-56.5850830078125,1.0426827370737708,0.0
1783054625.1446764,2026-07-03T13:57:05.144,-0.0107421875,0.01611328125,1.04443359375,0.0,0.0,0.0,0.703125,0.37353515625,-56.5850830078125,1.0446131169856459,0.0
1783054625.1446764,2026-07-03T13:57:05.144,-0.0107421875,0.0146484375,1.0439453125,0.0,0.0,0.0,0.703125,0.37353515625,-56.5850830078125,1.0441033410559508,0.0
1783054625.1446764,2026-07-03T13:57:05.144,-0.009765625,0.0146484375,1.04248046875,0.0,0.0,0.0,0.703125,0.37353515625,-56.5850830078125,1.0426291152073452,0.0
1783054625.1446764,2026-07-03T13:57:05.144,-0.0087890625,0.015625,1.04443359375,0.0,0.0,0.0,0.703125,0.37353515625,-56.5850830078125,1.0445874400921011,0.0
1783054625.1727295,2026-07-03T13:57:05.172,-0.01025390625,0.01513671875,1.041015625,0.0,0.0,0.0,0.703125,0.3790283203125,-56.5850830078125,1.0411761591306445,0.0
1783054625.1727295,2026-07-03T13:57:05.172,-0.00927734375,0.015625,1.044921875,0.0,0.0,0.0,0.703125,0.3790283203125,-56.5850830078125,1.0450798699551969,0.0
1783054625.1727295,2026-07-03T13:57:05.172,-0.00927734375,0.013671875,1.04150390625,0.0,0.0,0.0,0.703125,0.3790283203125,-56.5850830078125,1.0416349533339788,0.0
1783054625.1727295,2026-07-03T13:57:05.172,-0.01025390625,0.0166015625,1.04248046875,0.0,0.0,0.0,0.703125,0.3790283203125,-56.5850830078125,1.0426630722318908,0.0
1783054625.1727295,2026-07-03T13:57:05.172,-0.01318359375,0.01611328125,1.04248046875,0.0,0.0,0.0,0.703125,0.3790283203125,-56.5850830078125,1.0426883391992194,0.0
1783054625.1727295,2026-07-03T13:57:05.172,-0.01171875,0.01416015625,1.0419921875,0.0,0.0,0.0,0.703125,0.3790283203125,-56.5850830078125,1.0421542870120633,0.0
1783054625.17373,2026-07-03T13:57:05.173,-0.0087890625,0.01611328125,1.04541015625,0.0,0.0,0.0,0.703125,0.3790283203125,-56.5850830078125,1.045571269805612,0.0
1783054625.17373,2026-07-03T13:57:05.173,-0.009765625,0.013671875,1.04248046875,0.0,0.0,0.0,0.703125,0.3790283203125,-56.57958984375,1.042615852230761,0.0
1783054625.2342892,2026-07-03T13:57:05.234,-0.01025390625,0.01513671875,1.04248046875,0.0,0.0,0.0,0.7086181640625,0.3790283203125,-56.57958984375,1.0426407773404607,0.0
1783054625.2342892,2026-07-03T13:57:05.234,-0.0107421875,0.01611328125,1.04150390625,0.0,0.0,0.0,0.7086181640625,0.3790283203125,-56.57958984375,1.0416839343864988,0.0
1783054625.2342892,2026-07-03T13:57:05.234,-0.01123046875,0.01513671875,1.04052734375,0.0,0.0,0.0,0.7086181640625,0.3790283203125,-56.57958984375,1.040698033424822,0.0
1783054625.2342892,2026-07-03T13:57:05.234,-0.009765625,0.015625,1.0419921875,0.0,0.0,0.0,0.7086181640625,0.384521484375,-56.57958984375,1.042155087723356,0.0
1783054625.2342892,2026-07-03T13:57:05.234,-0.009765625,0.015625,1.04296875,0.0,0.0,0.0,0.7086181640625,0.384521484375,-56.57958984375,1.0431314977188653,0.0
1783054625.2342892,2026-07-03T13:57:05.234,-0.00927734375,0.01611328125,1.0419921875,0.0,0.0,0.0,0.7086181640625,0.384521484375,-56.57958984375,1.0421580617884854,0.0
1783054625.2342892,2026-07-03T13:57:05.234,-0.00830078125,0.0146484375,1.04345703125,0.0,0.0,0.0,0.7086181640625,0.384521484375,-56.57958984375,1.04359285919156,0.0
1783054625.2342892,2026-07-03T13:57:05.234,-0.00927734375,0.01416015625,1.04296875,0.0,0.0,0.0,0.7086181640625,0.384521484375,-56.57958984375,1.0431061272030966,0.0
1783054625.262458,2026-07-03T13:57:05.262,-0.00732421875,0.01513671875,1.04296875,0.0,0.0,0.0,0.7086181640625,0.384521484375,-56.57958984375,1.0431042986736163,0.0
1783054625.262458,2026-07-03T13:57:05.262,-0.0126953125,0.01416015625,1.04443359375,0.0,0.0,0.0,0.7086181640625,0.384521484375,-56.57958984375,1.044606726351136,0.0
1783054625.262458,2026-07-03T13:57:05.262,-0.01171875,0.015625,1.04150390625,0.0,0.0,0.0,0.7086181640625,0.384521484375,-56.57958984375,1.0416870242354808,0.0
1783054625.262458,2026-07-03T13:57:05.262,-0.01025390625,0.015625,1.04150390625,0.0,0.0,0.0,0.7086181640625,0.384521484375,-56.57958984375,1.0416715748989183,0.0
1783054625.262458,2026-07-03T13:57:05.262,-0.0107421875,0.01708984375,1.0439453125,0.0,0.0,0.0,0.7086181640625,0.384521484375,-56.57958984375,1.0441404468951518,0.0
1783054625.262458,2026-07-03T13:57:05.262,-0.00927734375,0.017578125,1.041015625,0.0,0.0,0.0,0.714111328125,0.3900146484375,-56.57958984375,1.0412053549034945,0.0
1783054625.262458,2026-07-03T13:57:05.262,-0.0107421875,0.01611328125,1.04248046875,0.0,0.0,0.0,0.714111328125,0.3900146484375,-56.57958984375,1.0426603282709794,0.0
1783054625.262458,2026-07-03T13:57:05.262,-0.00927734375,0.0166015625,1.04150390625,0.0,0.0,0.0,0.714111328125,0.3900146484375,-56.57958984375,1.0416775257816144,0.0
1783054625.2963676,2026-07-03T13:57:05.296,-0.0107421875,0.01416015625,1.04296875,0.0,0.0,0.0,0.714111328125,0.3900146484375,-56.57958984375,1.0431201839164421,0.0
1783054625.2963676,2026-07-03T13:57:05.296,-0.0107421875,0.015625,1.04296875,0.0,0.0,0.0,0.714111328125,0.3900146484375,-56.57958984375,1.0431410972125716,0.0
1783054625.2963676,2026-07-03T13:57:05.296,-0.0107421875,0.01513671875,1.04248046875,0.0,0.0,0.0,0.714111328125,0.3900146484375,-56.57958984375,1.0426456936908248,0.0
1783054625.2963676,2026-07-03T13:57:05.296,-0.0107421875,0.01416015625,1.04248046875,0.0,0.0,0.0,0.714111328125,0.3900146484375,-56.57958984375,1.0426319735853726,0.0
1783054625.2963676,2026-07-03T13:57:05.296,-0.009765625,0.01611328125,1.04248046875,0.0,0.0,0.0,0.714111328125,0.3900146484375,-56.57958984375,1.0426507243509218,0.0
1783054625.2963676,2026-07-03T13:57:05.296,-0.00927734375,0.0166015625,1.04248046875,0.0,0.0,0.0,0.714111328125,0.3900146484375,-56.5740966796875,1.0426539256674368,0.0
1783054625.2963676,2026-07-03T13:57:05.296,-0.01025390625,0.01318359375,1.04345703125,0.0,0.0,0.0,0.714111328125,0.3900146484375,-56.5740966796875,1.0435906888251794,0.0
1783054625.2963676,2026-07-03T13:57:05.296,-0.01025390625,0.01708984375,1.044921875,0.0,0.0,0.0,0.714111328125,0.3900146484375,-56.5740966796875,1.0451119223347798,0.0
1783054625.3526402,2026-07-03T13:57:05.352,-0.0087890625,0.015625,1.04150390625,0.0,0.0,0.0,0.714111328125,0.3955078125,-56.5740966796875,1.0416581852885511,0.0
1783054625.3526402,2026-07-03T13:57:05.352,-0.01025390625,0.01513671875,1.0400390625,0.0,0.0,0.0,0.714111328125,0.3955078125,-56.5740966796875,1.0401997473436433,0.0
1783054625.3526402,2026-07-03T13:57:05.352,-0.009765625,0.01513671875,1.04345703125,0.0,0.0,0.0,0.7196044921875,0.3955078125,-56.5740966796875,1.0436125065134187,0.0
1783054625.3526402,2026-07-03T13:57:05.352,-0.0107421875,0.017578125,1.04345703125,0.0,0.0,0.0,0.7196044921875,0.3955078125,-56.5740966796875,1.0436603667553273,0.0
1783054625.3526402,2026-07-03T13:57:05.352,-0.01025390625,0.01513671875,1.041015625,0.0,0.0,0.0,0.7196044921875,0.3955078125,-56.5740966796875,1.0411761591306445,0.0
1783054625.3526402,2026-07-03T13:57:05.352,-0.01025390625,0.015625,1.04296875,0.0,0.0,0.0,0.7196044921875,0.3955078125,-56.5740966796875,1.0431361831970676,0.0
1783054625.35364,2026-07-03T13:57:05.353,-0.009765625,0.015625,1.04443359375,0.0,0.0,0.0,0.7196044921875,0.3955078125,-56.5740966796875,1.0445961132467327,0.0
1783054625.35364,2026-07-03T13:57:05.353,-0.00927734375,0.01513671875,1.04345703125,0.0,0.0,0.0,0.7196044921875,0.3955078125,-56.5740966796875,1.0436080516298423,0.0
1783054625.385159,2026-07-03T13:57:05.385,-0.0078125,0.01611328125,1.04248046875,0.0,0.0,0.0,0.7196044921875,0.3955078125,-56.5740966796875,1.0426342602821526,0.0
1783054625.385159,2026-07-03T13:57:05.385,-0.01025390625,0.01513671875,1.04345703125,0.0,0.0,0.0,0.7196044921875,0.3955078125,-56.5740966796875,1.043617189832059,0.0
1783054625.385159,2026-07-03T13:57:05.385,-0.01171875,0.01513671875,1.0439453125,0.0,0.0,0.0,0.7196044921875,0.3955078125,-56.5740966796875,1.044120809507598,0.0
1783054625.385159,2026-07-03T13:57:05.385,-0.01025390625,0.01416015625,1.0419921875,0.0,0.0,0.0,0.7196044921875,0.4010009765625,-56.5740966796875,1.0421388446025046,0.0
1783054625.385159,2026-07-03T13:57:05.385,-0.009765625,0.01611328125,1.0400390625,0.0,0.0,0.0,0.7196044921875,0.4010009765625,-56.5740966796875,1.0402097176964658,0.0
1783054625.385159,2026-07-03T13:57:05.385,-0.0107421875,0.0126953125,1.04443359375,0.0,0.0,0.0,0.7196044921875,0.4010009765625,-56.5740966796875,1.044565985137032,0.0
1783054625.385159,2026-07-03T13:57:05.385,-0.01171875,0.01513671875,1.0439453125,0.0,0.0,0.0,0.7196044921875,0.4010009765625,-56.5740966796875,1.044120809507598,0.0
1783054625.385159,2026-07-03T13:57:05.385,-0.0107421875,0.015625,1.04248046875,0.0,0.0,0.0,0.72509765625,0.4010009765625,-56.5740966796875,1.0426528966739146,0.0
1783054625.4136488,2026-07-03T13:57:05.413,-0.01171875,0.01513671875,1.04296875,0.0,0.0,0.0,0.72509765625,0.4010009765625,-56.5740966796875,1.0431444113029804,0.0
1783054625.4136488,2026-07-03T13:57:05.413,-0.01025390625,0.01513671875,1.04443359375,0.0,0.0,0.0,0.72509765625,0.4010009765625,-56.5740966796875,1.0445936026041134,0.0
1783054625.4136488,2026-07-03T13:57:05.413,-0.009765625,0.015625,1.04541015625,0.0,0.0,0.0,0.72509765625,0.4010009765625,-56.5740966796875,1.0455725239538816,0.0
1783054625.4136488,2026-07-03T13:57:05.413,-0.0087890625,0.01513671875,1.04052734375,0.0,0.0,0.0,0.72509765625,0.4010009765625,-56.5740966796875,1.0406745509358708,0.0
1783054625.4136488,2026-07-03T13:57:05.413,-0.0107421875,0.01611328125,1.0419921875,0.0,0.0,0.0,0.72509765625,0.4010009765625,-56.568603515625,1.0421721312892425,0.0
1783054625.4136488,2026-07-03T13:57:05.413,-0.01025390625,0.01611328125,1.04296875,0.0,0.0,0.0,0.72509765625,0.4010009765625,-56.568603515625,1.043143611351087,0.0
1783054625.4136488,2026-07-03T13:57:05.413,-0.009765625,0.0166015625,1.04345703125,0.0,0.0,0.0,0.72509765625,0.406494140625,-56.568603515625,1.043634780646058,0.0
1783054625.4136488,2026-07-03T13:57:05.413,-0.00927734375,0.0166015625,1.04345703125,0.0,0.0,0.0,0.72509765625,0.406494140625,-56.568603515625,1.0436303258575617,0.0
1783054625.479035,2026-07-03T13:57:05.479,-0.00830078125,0.01708984375,1.04443359375,0.0,0.0,0.0,0.72509765625,0.406494140625,-56.568603515625,1.0446063839946125,0.0
1783054625.479035,2026-07-03T13:57:05.479,-0.01025390625,0.01611328125,1.041015625,0.0,0.0,0.0,0.72509765625,0.406494140625,-56.568603515625,1.0411908143660153,0.0
1783054625.479035,2026-07-03T13:57:05.479,-0.0078125,0.01611328125,1.04296875,0.0,0.0,0.0,0.72509765625,0.406494140625,-56.568603515625,1.0431224695429842,0.0
1783054625.479035,2026-07-03T13:57:05.479,-0.009765625,0.013671875,1.04248046875,0.0,0.0,0.0,0.72509765625,0.406494140625,-56.568603515625,1.042615852230761,0.0
1783054625.479035,2026-07-03T13:57:05.479,-0.01123046875,0.01708984375,1.04296875,0.0,0.0,0.0,0.72509765625,0.406494140625,-56.568603515625,1.043169209507406,0.0
1783054625.479035,2026-07-03T13:57:05.479,-0.009765625,0.0166015625,1.04541015625,0.0,0.0,0.0,0.7305908203125,0.406494140625,-56.568603515625,1.0455875736157787,0.0
1783054625.479035,2026-07-03T13:57:05.479,-0.009765625,0.0166015625,1.04150390625,0.0,0.0,0.0,0.7305908203125,0.406494140625,-56.568603515625,1.0416819889213267,0.0
1783054625.479035,2026-07-03T13:57:05.479,-0.00830078125,0.01513671875,1.04345703125,0.0,0.0,0.0,0.7305908203125,0.406494140625,-56.568603515625,1.043599827179432,0.0
1783054625.5038424,2026-07-03T13:57:05.503,-0.009765625,0.017578125,1.041015625,0.0,0.0,0.0,0.7305908203125,0.406494140625,-56.568603515625,1.0412098200671644,0.0
1783054625.5038424,2026-07-03T13:57:05.503,-0.00927734375,0.0146484375,1.0439453125,0.0,0.0,0.0,0.7305908203125,0.406494140625,-56.568603515625,1.0440892975789808,0.0
1783054625.5038424,2026-07-03T13:57:05.503,-0.01025390625,0.01416015625,1.04248046875,0.0,0.0,0.0,0.7305908203125,0.4119873046875,-56.568603515625,1.0426270571703133,0.0
1783054625.5038424,2026-07-03T13:57:05.503,-0.01123046875,0.0126953125,1.04150390625,0.0,0.0,0.0,0.7305908203125,0.4119873046875,-56.568603515625,1.041641819975478,0.0
1783054625.5038424,2026-07-03T13:57:05.503,-0.0107421875,0.01318359375,1.04248046875,0.0,0.0,0.0,0.7305908203125,0.4119873046875,-56.568603515625,1.0426191679907242,0.0
1783054625.5038424,2026-07-03T13:57:05.503,-0.009765625,0.0166015625,1.04345703125,0.0,0.0,0.0,0.7305908203125,0.4119873046875,-56.568603515625,1.043634780646058,0.0
1783054625.5038424,2026-07-03T13:57:05.503,-0.01025390625,0.0166015625,1.04443359375,0.0,0.0,0.0,0.7305908203125,0.4119873046875,-56.568603515625,1.0446158558170393,0.0
1783054625.5038424,2026-07-03T13:57:05.503,-0.00830078125,0.01318359375,1.04248046875,0.0,0.0,0.0,0.7305908203125,0.4119873046875,-56.568603515625,1.042596872160446,0.0
1783054625.5327475,2026-07-03T13:57:05.532,-0.009765625,0.0166015625,1.041015625,0.0,0.0,0.0,0.7305908203125,0.4119873046875,-56.568603515625,1.0411937911854943,0.0
1783054625.5327475,2026-07-03T13:57:05.532,-0.00927734375,0.01318359375,1.04296875,0.0,0.0,0.0,0.7305908203125,0.4119873046875,-56.568603515625,1.0430933274294218,0.0
1783054625.5327475,2026-07-03T13:57:05.532,-0.01025390625,0.015625,1.041015625,0.0,0.0,0.0,0.7305908203125,0.4119873046875,-56.568603515625,1.0411833722800823,0.0
1783054625.5327475,2026-07-03T13:57:05.532,-0.00830078125,0.013671875,1.04150390625,0.0,0.0,0.0,0.736083984375,0.4119873046875,-56.568603515625,1.041626713304428,0.0
1783054625.5327475,2026-07-03T13:57:05.532,-0.01123046875,0.015625,1.04345703125,0.0,0.0,0.0,0.736083984375,0.4119873046875,-56.568603515625,1.043634437970695,0.0
1783054625.5327475,2026-07-03T13:57:05.532,-0.01123046875,0.015625,1.04248046875,0.0,0.0,0.0,0.736083984375,0.4119873046875,-56.568603515625,1.0426580416313704,0.0
1783054625.5327475,2026-07-03T13:57:05.532,-0.0107421875,0.01708984375,1.04052734375,0.0,0.0,0.0,0.736083984375,0.4119873046875,-56.5631103515625,1.0407231190105826,0.0
1783054625.533753,2026-07-03T13:57:05.533,-0.01171875,0.013671875,1.0419921875,0.0,0.0,0.0,0.736083984375,0.41748046875,-56.5631103515625,1.0421477669114938,0.0
1783054625.5921776,2026-07-03T13:57:05.592,-0.01025390625,0.01220703125,1.0439453125,0.0,0.0,0.0,0.736083984375,0.41748046875,-56.5631103515625,1.0440670331430089,0.0
1783054625.5931776,2026-07-03T13:57:05.593,-0.00927734375,0.01513671875,1.04345703125,0.0,0.0,0.0,0.736083984375,0.41748046875,-56.5631103515625,1.0436080516298423,0.0
1783054625.5931776,2026-07-03T13:57:05.593,-0.00927734375,0.01611328125,1.04443359375,0.0,0.0,0.0,0.736083984375,0.41748046875,-56.5631103515625,1.0445990803620484,0.0
1783054625.5931776,2026-07-03T13:57:05.593,-0.01220703125,0.01611328125,1.04345703125,0.0,0.0,0.0,0.736083984375,0.41748046875,-56.5631103515625,1.043652828056171,0.0
1783054625.5931776,2026-07-03T13:57:05.593,-0.009765625,0.015625,1.0439453125,0.0,0.0,0.0,0.736083984375,0.41748046875,-56.5631103515625,1.0441079079996298,0.0
1783054625.5931776,2026-07-03T13:57:05.593,-0.009765625,0.017578125,1.04345703125,0.0,0.0,0.0,0.736083984375,0.41748046875,-56.5631103515625,1.0436507720378594,0.0
1783054625.5931776,2026-07-03T13:57:05.593,-0.009765625,0.0146484375,1.04150390625,0.0,0.0,0.0,0.736083984375,0.41748046875,-56.5631103515625,1.041652692065278,0.0
1783054625.5931776,2026-07-03T13:57:05.593,-0.0087890625,0.01513671875,1.04248046875,0.0,0.0,0.0,0.736083984375,0.41748046875,-56.5631103515625,1.0426274001767675,0.0
1783054625.6228848,2026-07-03T13:57:05.622,-0.01123046875,0.01513671875,1.04296875,0.0,0.0,0.0,0.736083984375,0.41748046875,-56.5631103515625,1.0431390401856426,0.0
1783054625.6228848,2026-07-03T13:57:05.622,-0.009765625,0.01416015625,1.04443359375,0.0,0.0,0.0,0.736083984375,0.41748046875,-56.5631103515625,1.0445752290812784,0.0
1783054625.6228848,2026-07-03T13:57:05.622,-0.0107421875,0.013671875,1.0419921875,0.0,0.0,0.0,0.736083984375,0.41748046875,-56.5631103515625,1.0421372431543439,0.0
1783054625.6228848,2026-07-03T13:57:05.622,-0.00927734375,0.0146484375,1.04248046875,0.0,0.0,0.0,0.736083984375,0.41748046875,-56.5631103515625,1.0426246561219752,0.0
1783054625.6228848,2026-07-03T13:57:05.622,-0.0068359375,0.01611328125,1.04345703125,0.0,0.0,0.0,0.7415771484375,0.4229736328125,-56.5631103515625,1.043603825184255,0.0
1783054625.6228848,2026-07-03T13:57:05.622,-0.01123046875,0.01708984375,1.04443359375,0.0,0.0,0.0,0.7415771484375,0.4229736328125,-56.5631103515625,1.04463377216194,0.0
1783054625.6228848,2026-07-03T13:57:05.622,-0.0107421875,0.01513671875,1.041015625,0.0,0.0,0.0,0.7415771484375,0.4229736328125,-56.5631103515625,1.0411810823967858,0.0
1783054625.6228848,2026-07-03T13:57:05.622,-0.01123046875,0.01513671875,1.04345703125,0.0,0.0,0.0,0.7415771484375,0.4229736328125,-56.5631103515625,1.0436272417620789,0.0
1783054625.6824033,2026-07-03T13:57:05.682,-0.01025390625,0.0146484375,1.04248046875,0.0,0.0,0.0,0.7415771484375,0.4229736328125,-56.5631103515625,1.0426338029431979,0.0
1783054625.6824033,2026-07-03T13:57:05.682,-0.01171875,0.015625,1.041015625,0.0,0.0,0.0,0.7415771484375,0.4229736328125,-56.5631103515625,1.0411988288606087,0.0
1783054625.6824033,2026-07-03T13:57:05.682,-0.01025390625,0.01513671875,1.04052734375,0.0,0.0,0.0,0.7415771484375,0.4229736328125,-56.5631103515625,1.04068795320179,0.0
1783054625.6824033,2026-07-03T13:57:05.682,-0.009765625,0.01416015625,1.04150390625,0.0,0.0,0.0,0.7415771484375,0.4229736328125,-56.5631103515625,1.0416459399386502,0.0
1783054625.6824033,2026-07-03T13:57:05.682,-0.0107421875,0.0166015625,1.04296875,0.0,0.0,0.0,0.7415771484375,0.4229736328125,-56.5631103515625,1.0431561819527742,0.0
1783054625.6824033,2026-07-03T13:57:05.682,-0.0078125,0.01611328125,1.0439453125,0.0,0.0,0.0,0.7415771484375,0.4229736328125,-56.5631103515625,1.0440988882666307,0.0
1783054625.6824033,2026-07-03T13:57:05.682,-0.0078125,0.015625,1.04248046875,0.0,0.0,0.0,0.7415771484375,0.4229736328125,-56.5631103515625,1.0426268284992812,0.0
1783054625.6824033,2026-07-03T13:57:05.682,-0.0087890625,0.015625,1.041015625,0.0,0.0,0.0,0.7415771484375,0.4229736328125,-56.5631103515625,1.0411699763913524,0.0
1783054625.7122035,2026-07-03T13:57:05.712,-0.01025390625,0.01416015625,1.04150390625,0.0,0.0,0.0,0.7415771484375,0.4229736328125,-56.5631103515625,1.041650632099082,0.0
1783054625.7132041,2026-07-03T13:57:05.713,-0.01025390625,0.01611328125,1.0439453125,0.0,0.0,0.0,0.7415771484375,0.4229736328125,-56.5576171875,1.0441200103037716,0.0
1783054625.7132041,2026-07-03T13:57:05.713,-0.009765625,0.0166015625,1.04296875,0.0,0.0,0.0,0.7415771484375,0.428466796875,-56.5576171875,1.0431465825978843,0.0
1783054625.7132041,2026-07-03T13:57:05.713,-0.009765625,0.0166015625,1.04150390625,0.0,0.0,0.0,0.7415771484375,0.428466796875,-56.5576171875,1.0416819889213267,0.0
1783054625.7132041,2026-07-03T13:57:05.713,-0.0107421875,0.01611328125,1.0439453125,0.0,0.0,0.0,0.7415771484375,0.428466796875,-56.5576171875,1.0441249196890425,0.0
1783054625.7132041,2026-07-03T13:57:05.713,-0.0087890625,0.01611328125,1.0419921875,0.0,0.0,0.0,0.7470703125,0.428466796875,-56.5576171875,1.042153829462477,0.0
1783054625.7132041,2026-07-03T13:57:05.713,-0.01025390625,0.01611328125,1.04052734375,0.0,0.0,0.0,0.7470703125,0.428466796875,-56.5576171875,1.0407026153121055,0.0
1783054625.7132041,2026-07-03T13:57:05.713,-0.00732421875,0.0146484375,1.0439453125,0.0,0.0,0.0,0.7470703125,0.428466796875,-56.5576171875,1.0440737696121918,0.0
1783054625.7454872,2026-07-03T13:57:05.745,-0.00927734375,0.01416015625,1.04296875,0.0,0.0,0.0,0.7470703125,0.428466796875,-56.5576171875,1.0431061272030966,0.0
1783054625.7454872,2026-07-03T13:57:05.745,-0.009765625,0.01318359375,1.04443359375,0.0,0.0,0.0,0.7470703125,0.428466796875,-56.5576171875,1.044562447309564,0.0
1783054625.7454872,2026-07-03T13:57:05.745,-0.0087890625,0.015625,1.04248046875,0.0,0.0,0.0,0.7470703125,0.428466796875,-56.5576171875,1.0426346032862368,0.0
1783054625.7454872,2026-07-03T13:57:05.745,-0.00927734375,0.01513671875,1.0439453125,0.0,0.0,0.0,0.7470703125,0.428466796875,-56.5576171875,1.0440962622537708,0.0
1783054625.7454872,2026-07-03T13:57:05.745,-0.009765625,0.013671875,1.04296875,0.0,0.0,0.0,0.7470703125,0.428466796875,-56.5576171875,1.0431040701072058,0.0
1783054625.746485,2026-07-03T13:57:05.746,-0.0107421875,0.01318359375,1.04296875,0.0,0.0,0.0,0.7470703125,0.428466796875,-56.5576171875,1.0431073843152547,0.0
1783054625.746485,2026-07-03T13:57:05.746,-0.00927734375,0.01513671875,1.0439453125,0.0,0.0,0.0,0.7470703125,0.428466796875,-56.5576171875,1.0440962622537708,0.0
1783054625.746485,2026-07-03T13:57:05.746,-0.0126953125,0.01416015625,1.04443359375,0.0,0.0,0.0,0.7470703125,0.428466796875,-56.5576171875,1.044606726351136,0.0
1783054625.8041518,2026-07-03T13:57:05.804,-0.01025390625,0.01513671875,1.04541015625,0.0,0.0,0.0,0.7470703125,0.428466796875,-56.5576171875,1.0455700156558383,0.0
1783054625.8041518,2026-07-03T13:57:05.804,-0.01025390625,0.01513671875,1.04296875,0.0,0.0,0.0,0.7470703125,0.428466796875,-56.5576171875,1.0431289835511537,0.0
1783054625.8041518,2026-07-03T13:57:05.804,-0.00927734375,0.0166015625,1.041015625,0.0,0.0,0.0,0.7470703125,0.4339599609375,-56.5576171875,1.0411893259530842,0.0
1783054625.8041518,2026-07-03T13:57:05.804,-0.009765625,0.015625,1.04345703125,0.0,0.0,0.0,0.7470703125,0.4339599609375,-56.5576171875,1.0436197028236407,0.0
1783054625.8041518,2026-07-03T13:57:05.804,-0.0087890625,0.015625,1.0400390625,0.0,0.0,0.0,0.7470703125,0.4339599609375,-56.5576171875,1.0401935588007205,0.0
1783054625.8041518,2026-07-03T13:57:05.804,-0.00927734375,0.015625,1.04443359375,0.0,0.0,0.0,0.7470703125,0.4339599609375,-56.5576171875,1.0445916625579565,0.0
1783054625.8041518,2026-07-03T13:57:05.804,-0.0107421875,0.01513671875,1.04541015625,0.0,0.0,0.0,0.7470703125,0.4339599609375,-56.5576171875,1.045574918232764,0.0
1783054625.8041518,2026-07-03T13:57:05.804,-0.01025390625,0.01416015625,1.0439453125,0.0,0.0,0.0,0.7525634765625,0.4339599609375,-56.5576171875,1.0440916952591524,0.0
1783054625.837664,2026-07-03T13:57:05.837,-0.0107421875,0.01513671875,1.04052734375,0.0,0.0,0.0,0.7525634765625,0.4339599609375,-56.5576171875,1.0406928787775154,0.0
1783054625.837664,2026-07-03T13:57:05.837,-0.0087890625,0.0146484375,1.04345703125,0.0,0.0,0.0,0.7525634765625,0.4339599609375,-56.5576171875,1.0435968572230772,0.0
1783054625.837664,2026-07-03T13:57:05.837,-0.01123046875,0.01318359375,1.04443359375,0.0,0.0,0.0,0.7525634765625,0.4339599609375,-56.5576171875,1.0445771691579564,0.0
1783054625.837664,2026-07-03T13:57:05.837,-0.0107421875,0.01416015625,1.0419921875,0.0,0.0,0.0,0.7525634765625,0.4339599609375,-56.5576171875,1.0421437633207544,0.0
1783054625.837664,2026-07-03T13:57:05.837,-0.0087890625,0.01318359375,1.04248046875,0.0,0.0,0.0,0.7525634765625,0.4339599609375,-56.5576171875,1.0426008740112458,0.0
1783054625.837664,2026-07-03T13:57:05.837,-0.01171875,0.01611328125,1.0419921875,0.0,0.0,0.0,0.7525634765625,0.4339599609375,-56.5576171875,1.0421826546940989,0.0
1783054625.837664,2026-07-03T13:57:05.837,-0.00830078125,0.015625,1.0400390625,0.0,0.0,0.0,0.7525634765625,0.4339599609375,-56.5576171875,1.0401895476884198,0.0
1783054625.837664,2026-07-03T13:57:05.837,-0.01220703125,0.015625,1.044921875,0.0,0.0,0.0,0.7525634765625,0.4339599609375,-56.5521240234375,1.045109983250784,0.0
1783054625.8626626,2026-07-03T13:57:05.862,-0.01123046875,0.015625,1.0439453125,0.0,0.0,0.0,0.7525634765625,0.4339599609375,-56.5521240234375,1.044122636256904,0.0
1783054625.8636632,2026-07-03T13:57:05.863,-0.00927734375,0.015625,1.04345703125,0.0,0.0,0.0,0.7525634765625,0.439453125,-56.5521240234375,1.0436152479707832,0.0
1783054625.8636632,2026-07-03T13:57:05.863,-0.00927734375,0.01513671875,1.041015625,0.0,0.0,0.0,0.7525634765625,0.439453125,-56.5521240234375,1.0411669995037842,0.0
1783054625.8636632,2026-07-03T13:57:05.863,-0.01025390625,0.01513671875,1.0400390625,0.0,0.0,0.0,0.7525634765625,0.439453125,-56.5521240234375,1.0401997473436433,0.0
1783054625.8636632,2026-07-03T13:57:05.863,-0.00927734375,0.01611328125,1.044921875,0.0,0.0,0.0,0.7525634765625,0.439453125,-56.5521240234375,1.0450872842940981,0.0
1783054625.8636632,2026-07-03T13:57:05.863,-0.01025390625,0.0146484375,1.044921875,0.0,0.0,0.0,0.7525634765625,0.439453125,-56.5521240234375,1.0450748509882395,0.0
1783054625.8636632,2026-07-03T13:57:05.863,-0.01025390625,0.01220703125,1.04345703125,0.0,0.0,0.0,0.7525634765625,0.439453125,-56.5521240234375,1.0435788088450175,0.0
1783054625.8636632,2026-07-03T13:57:05.863,-0.0107421875,0.01708984375,1.0439453125,0.0,0.0,0.0,0.7525634765625,0.439453125,-56.5521240234375,1.0441404468951518,0.0
1783054625.9293742,2026-07-03T13:57:05.929,-0.0107421875,0.01708984375,1.04296875,0.0,0.0,0.0,0.7525634765625,0.439453125,-56.5521240234375,1.0431640670710658,0.0
1783054625.9293742,2026-07-03T13:57:05.929,-0.0087890625,0.01708984375,1.04150390625,0.0,0.0,0.0,0.7525634765625,0.439453125,-56.5521240234375,1.041681187846376,0.0
1783054625.9293742,2026-07-03T13:57:05.929,-0.0107421875,0.0146484375,1.04443359375,0.0,0.0,0.0,0.7525634765625,0.439453125,-56.5521240234375,1.0445915484374821,0.0
1783054625.9293742,2026-07-03T13:57:05.929,-0.0087890625,0.01318359375,1.04345703125,0.0,0.0,0.0,0.7525634765625,0.439453125,-56.5521240234375,1.0435773238379882,0.0
1783054625.9293742,2026-07-03T13:57:05.929,-0.01025390625,0.0166015625,1.04296875,0.0,0.0,0.0,0.7525634765625,0.439453125,-56.5521240234375,1.0431512680083304,0.0
1783054625.9293742,2026-07-03T13:57:05.929,-0.01025390625,0.013671875,1.0439453125,0.0,0.0,0.0,0.758056640625,0.439453125,-56.5521240234375,1.0440851872573051,0.0
1783054625.9293742,2026-07-03T13:57:05.929,-0.01025390625,0.01416015625,1.04248046875,0.0,0.0,0.0,0.758056640625,0.439453125,-56.5521240234375,1.0426270571703133,0.0
1783054625.9293742,2026-07-03T13:57:05.929,-0.01025390625,0.0146484375,1.03955078125,0.0,0.0,0.0,0.758056640625,0.439453125,-56.5521240234375,1.0397045475095608,0.0
1783054625.953381,2026-07-03T13:57:05.953,-0.01025390625,0.0146484375,1.0419921875,0.0,0.0,0.0,0.758056640625,0.439453125,-56.5521240234375,1.0421455935355723,0.0
1783054625.953381,2026-07-03T13:57:05.953,-0.01123046875,0.01708984375,1.0439453125,0.0,0.0,0.0,0.758056640625,0.4449462890625,-56.5521240234375,1.0441455845228034,0.0
1783054625.953381,2026-07-03T13:57:05.953,-0.0087890625,0.015625,1.0439453125,0.0,0.0,0.0,0.758056640625,0.4449462890625,-56.5521240234375,1.0440992307895602,0.0
1783054625.953381,2026-07-03T13:57:05.953,-0.00927734375,0.01611328125,1.04541015625,0.0,0.0,0.0,0.758056640625,0.4449462890625,-56.5521240234375,1.0455754882983566,0.0
1783054625.953381,2026-07-03T13:57:05.953,-0.00830078125,0.015625,1.04345703125,0.0,0.0,0.0,0.758056640625,0.4449462890625,-56.5521240234375,1.0436070235770856,0.0
1783054625.953381,2026-07-03T13:57:05.953,-0.0087890625,0.01513671875,1.041015625,0.0,0.0,0.0,0.758056640625,0.4449462890625,-56.5521240234375,1.0411627631491083,0.0
1783054625.953381,2026-07-03T13:57:05.953,-0.0107421875,0.01513671875,1.04248046875,0.0,0.0,0.0,0.758056640625,0.4449462890625,-56.5521240234375,1.0426456936908248,0.0
1783054625.953381,2026-07-03T13:57:05.953,-0.01025390625,0.01416015625,1.04443359375,0.0,0.0,0.0,0.758056640625,0.4449462890625,-56.5521240234375,1.044579908083603,0.0
1783054625.9818916,2026-07-03T13:57:05.981,-0.01123046875,0.01513671875,1.04248046875,0.0,0.0,0.0,0.758056640625,0.4449462890625,-56.5521240234375,1.0426508386838238,0.0
1783054625.982891,2026-07-03T13:57:05.982,-0.01025390625,0.01611328125,1.04248046875,0.0,0.0,0.0,0.758056640625,0.4449462890625,-56.5521240234375,1.0426554119896205,0.0
1783054625.982891,2026-07-03T13:57:05.982,-0.0107421875,0.017578125,1.04052734375,0.0,0.0,0.0,0.758056640625,0.4449462890625,-56.5521240234375,1.0407312516506033,0.0
1783054625.982891,2026-07-03T13:57:05.982,-0.0087890625,0.015625,1.03369140625,0.0,0.0,0.0,0.758056640625,0.4449462890625,-56.5521240234375,1.0338468511340215,0.0
1783054625.982891,2026-07-03T13:57:05.982,-0.0087890625,0.0146484375,1.0517578125,0.0,0.0,0.0,0.758056640625,0.4449462890625,-56.5521240234375,1.0518965350715845,0.0
1783054625.982891,2026-07-03T13:57:05.982,-0.00927734375,0.0166015625,1.03369140625,0.0,0.0,0.0,0.758056640625,0.4449462890625,-56.5521240234375,1.0338663377533865,0.0
1783054625.982891,2026-07-03T13:57:05.982,-0.01025390625,0.015625,1.0576171875,0.0,0.0,0.0,0.758056640625,0.4449462890625,-56.5521240234375,1.0577823020422463,0.0
1783054625.982891,2026-07-03T13:57:05.982,-0.00830078125,0.01416015625,1.0419921875,0.0,0.0,0.0,0.758056640625,0.4449462890625,-56.546630859375,1.0421214573193567,0.0
1783054626.0458887,2026-07-03T13:57:06.045,-0.01171875,0.0146484375,1.03857421875,0.0,0.0,0.0,0.758056640625,0.4449462890625,-56.546630859375,1.0387436226879696,0.0
1783054626.0458887,2026-07-03T13:57:06.045,-0.009765625,0.01416015625,1.048828125,0.0,0.0,0.0,0.758056640625,0.4449462890625,-56.546630859375,1.0489691669671137,0.0
1783054626.0458887,2026-07-03T13:57:06.045,-0.01025390625,0.01611328125,1.04296875,0.0,0.0,0.0,0.7635498046875,0.450439453125,-56.546630859375,1.043143611351087,0.0
1783054626.0458887,2026-07-03T13:57:06.045,-0.01123046875,0.0146484375,1.04443359375,0.0,0.0,0.0,0.7635498046875,0.450439453125,-56.546630859375,1.0445966838464864,0.0
1783054626.0458887,2026-07-03T13:57:06.045,-0.01025390625,0.01708984375,1.04443359375,0.0,0.0,0.0,0.7635498046875,0.450439453125,-56.546630859375,1.0446237299172958,0.0
1783054626.0458887,2026-07-03T13:57:06.045,-0.00732421875,0.01708984375,1.04541015625,0.0,0.0,0.0,0.7635498046875,0.450439453125,-56.546630859375,1.0455754882983566,0.0
1783054626.0458887,2026-07-03T13:57:06.045,-0.01171875,0.0166015625,1.03955078125,0.0,0.0,0.0,0.7635498046875,0.450439453125,-56.546630859375,1.0397493773869206,0.0
1783054626.0458887,2026-07-03T13:57:06.045,-0.0078125,0.0146484375,1.04443359375,0.0,0.0,0.0,0.7635498046875,0.450439453125,-56.546630859375,1.0445655286438382,0.0
1783054626.0722566,2026-07-03T13:57:06.072,-0.009765625,0.0166015625,1.04248046875,0.0,0.0,0.0,0.7635498046875,0.450439453125,-56.546630859375,1.0426583846276314,0.0
1783054626.073222,2026-07-03T13:57:06.073,-0.00830078125,0.015625,1.04296875,0.0,0.0,0.0,0.7635498046875,0.450439453125,-56.546630859375,1.043118812538113,0.0
1783054626.073222,2026-07-03T13:57:06.073,-0.00830078125,0.01611328125,1.04443359375,0.0,0.0,0.0,0.7635498046875,0.450439453125,-56.546630859375,1.0445908637143742,0.0
1783054626.073222,2026-07-03T13:57:06.073,-0.009765625,0.01708984375,1.0419921875,0.0,0.0,0.0,0.7635498046875,0.450439453125,-56.546630859375,1.0421780793137396,0.0
1783054626.073222,2026-07-03T13:57:06.073,-0.00830078125,0.01513671875,1.0419921875,0.0,0.0,0.0,0.7635498046875,0.450439453125,-56.546630859375,1.0421351841459494,0.0
1783054626.073222,2026-07-03T13:57:06.073,-0.0087890625,0.01611328125,1.0419921875,0.0,0.0,0.0,0.7635498046875,0.450439453125,-56.546630859375,1.042153829462477,0.0
1783054626.073222,2026-07-03T13:57:06.073,-0.0087890625,0.0146484375,1.044921875,0.0,0.0,0.0,0.7635498046875,0.450439453125,-56.546630859375,1.0450615049815661,0.0
1783054626.073222,2026-07-03T13:57:06.073,-0.00732421875,0.0146484375,1.041015625,0.0,0.0,0.0,0.7635498046875,0.450439453125,-56.546630859375,1.0411444435790982,0.0
1783054626.1321886,2026-07-03T13:57:06.132,-0.009765625,0.01318359375,1.04345703125,0.0,0.0,0.0,0.7635498046875,0.450439453125,-56.546630859375,1.0435860053876103,0.0
1783054626.1321886,2026-07-03T13:57:06.132,-0.00927734375,0.01611328125,1.0400390625,0.0,0.0,0.0,0.7635498046875,0.450439453125,-56.546630859375,1.040205248239777,0.0
1783054626.1321886,2026-07-03T13:57:06.132,-0.01123046875,0.01513671875,1.04150390625,0.0,0.0,0.0,0.7635498046875,0.450439453125,-56.546630859375,1.0416744359044576,0.0
1783054626.1321886,2026-07-03T13:57:06.132,-0.0107421875,0.01220703125,1.0439453125,0.0,0.0,0.0,0.7635498046875,0.450439453125,-56.546630859375,1.0440719427773866,0.0
1783054626.1321886,2026-07-03T13:57:06.132,-0.009765625,0.015625,1.04248046875,0.0,0.0,0.0,0.7635498046875,0.450439453125,-56.546630859375,1.0426432926854037,0.0
1783054626.1321886,2026-07-03T13:57:06.132,-0.009765625,0.01708984375,1.0439453125,0.0,0.0,0.0,0.7635498046875,0.450439453125,-56.546630859375,1.0441308565892318,0.0
1783054626.1321886,2026-07-03T13:57:06.132,-0.01171875,0.01611328125,1.04248046875,0.0,0.0,0.0,0.76904296875,0.4559326171875,-56.546630859375,1.042670846748591,0.0
1783054626.1321886,2026-07-03T13:57:06.132,-0.0087890625,0.01708984375,1.04345703125,0.0,0.0,0.0,0.76904296875,0.4559326171875,-56.546630859375,1.0436339810700357,0.0
1783054626.163702,2026-07-03T13:57:06.163,-0.01123046875,0.015625,1.04443359375,0.0,0.0,0.0,0.76904296875,0.4559326171875,-56.546630859375,1.0446108346206662,0.0
1783054626.163702,2026-07-03T13:57:06.163,-0.00927734375,0.01708984375,1.04443359375,0.0,0.0,0.0,0.76904296875,0.4559326171875,-56.546630859375,1.0446146005202086,0.0
1783054626.163702,2026-07-03T13:57:06.163,-0.009765625,0.015625,1.044921875,0.0,0.0,0.0,0.76904296875,0.4559326171875,-56.546630859375,1.0450843185648497,0.0
1783054626.163702,2026-07-03T13:57:06.163,-0.009765625,0.015625,1.04150390625,0.0,0.0,0.0,0.76904296875,0.4559326171875,-56.546630859375,1.0416668828328226,0.0
1783054626.163702,2026-07-03T13:57:06.163,-0.00927734375,0.015625,1.044921875,0.0,0.0,0.0,0.76904296875,0.4559326171875,-56.546630859375,1.0450798699551969,0.0
1783054626.163702,2026-07-03T13:57:06.163,-0.00927734375,0.015625,1.04541015625,0.0,0.0,0.0,0.76904296875,0.4559326171875,-56.546630859375,1.0455680774214107,0.0
1783054626.163702,2026-07-03T13:57:06.163,-0.0078125,0.01416015625,1.0439453125,0.0,0.0,0.0,0.76904296875,0.4559326171875,-56.546630859375,1.044070572649185,0.0
1783054626.163702,2026-07-03T13:57:06.163,-0.01123046875,0.01416015625,1.0419921875,0.0,0.0,0.0,0.76904296875,0.4559326171875,-56.546630859375,1.0421489107917372,0.0
1783054626.1942177,2026-07-03T13:57:06.194,-0.01025390625,0.0166015625,1.044921875,0.0,0.0,0.0,0.76904296875,0.4559326171875,-56.546630859375,1.0451040519126986,0.0
1783054626.1942177,2026-07-03T13:57:06.194,-0.00830078125,0.01611328125,1.0439453125,0.0,0.0,0.0,0.76904296875,0.4559326171875,-56.546630859375,1.044102656012676,0.0
1783054626.1942177,2026-07-03T13:57:06.194,-0.01025390625,0.01513671875,1.04345703125,0.0,0.0,0.0,0.76904296875,0.4559326171875,-56.546630859375,1.043617189832059,0.0
1783054626.195219,2026-07-03T13:57:06.195,-0.009765625,0.0146484375,1.04345703125,0.0,0.0,0.0,0.76904296875,0.4559326171875,-56.546630859375,1.0436055386102048,0.0
1783054626.195219,2026-07-03T13:57:06.195,-0.01025390625,0.01416015625,1.041015625,0.0,0.0,0.0,0.76904296875,0.4559326171875,-56.5411376953125,1.041162419660136,0.0
1783054626.195219,2026-07-03T13:57:06.195,-0.01123046875,0.01513671875,1.0419921875,0.0,0.0,0.0,0.76904296875,0.4559326171875,-56.5411376953125,1.042162637256727,0.0
1783054626.195219,2026-07-03T13:57:06.195,-0.01123046875,0.017578125,1.04541015625,0.0,0.0,0.0,0.76904296875,0.4559326171875,-56.5411376953125,1.0456182423320233,0.0
1783054626.195219,2026-07-03T13:57:06.195,-0.009765625,0.01513671875,1.04150390625,0.0,0.0,0.0,0.76904296875,0.4559326171875,-56.5411376953125,1.0416596730315357,0.0
1783054626.2222147,2026-07-03T13:57:06.222,-0.00927734375,0.01513671875,1.0439453125,0.0,0.0,0.0,0.76904296875,0.4559326171875,-56.5411376953125,1.0440962622537708,0.0
1783054626.2222147,2026-07-03T13:57:06.222,-0.009765625,0.0166015625,1.04150390625,0.0,0.0,0.0,0.76904296875,0.4559326171875,-56.5411376953125,1.0416819889213267,0.0
1783054626.223215,2026-07-03T13:57:06.223,-0.00927734375,0.01708984375,1.04345703125,0.0,0.0,0.0,0.7745361328125,0.4559326171875,-56.5411376953125,1.0436382073935002,0.0
1783054626.223215,2026-07-03T13:57:06.223,-0.00830078125,0.015625,1.04296875,0.0,0.0,0.0,0.7745361328125,0.4559326171875,-56.5411376953125,1.043118812538113,0.0
1783054626.223215,2026-07-03T13:57:06.223,-0.00927734375,0.01416015625,1.04345703125,0.0,0.0,0.0,0.7745361328125,0.46142578125,-56.5411376953125,1.043594344176483,0.0
1783054626.223215,2026-07-03T13:57:06.223,-0.009765625,0.01513671875,1.0419921875,0.0,0.0,0.0,0.7745361328125,0.46142578125,-56.5411376953125,1.0421478812995746,0.0
1783054626.223215,2026-07-03T13:57:06.223,-0.01025390625,0.015625,1.04345703125,0.0,0.0,0.0,0.7745361328125,0.46142578125,-56.5411376953125,1.043624386109987,0.0
1783054626.223215,2026-07-03T13:57:06.223,-0.009765625,0.015625,1.04443359375,0.0,0.0,0.0,0.7745361328125,0.46142578125,-56.5411376953125,1.0445961132467327,0.0
1783054626.284552,2026-07-03T13:57:06.284,-0.00927734375,0.0146484375,1.04345703125,0.0,0.0,0.0,0.7745361328125,0.46142578125,-56.5411376953125,1.0436010836968839,0.0
1783054626.284552,2026-07-03T13:57:06.284,-0.01171875,0.01318359375,1.044921875,0.0,0.0,0.0,0.7745361328125,0.46142578125,-56.5411376953125,1.0450707445428005,0.0
1783054626.284552,2026-07-03T13:57:06.284,-0.01123046875,0.01708984375,1.04296875,0.0,0.0,0.0,0.7745361328125,0.46142578125,-56.5411376953125,1.043169209507406,0.0
1783054626.2855473,2026-07-03T13:57:06.285,-0.0087890625,0.013671875,1.04296875,0.0,0.0,0.0,0.7745361328125,0.46142578125,-56.5411376953125,1.0430953845464983,0.0
1783054626.2855473,2026-07-03T13:57:06.285,-0.01123046875,0.01513671875,1.04443359375,0.0,0.0,0.0,0.7745361328125,0.46142578125,-56.5411376953125,1.044603645138385,0.0
1783054626.2855473,2026-07-03T13:57:06.285,-0.00927734375,0.0146484375,1.04345703125,0.0,0.0,0.0,0.7745361328125,0.46142578125,-56.5411376953125,1.0436010836968839,0.0
1783054626.2855473,2026-07-03T13:57:06.285,-0.01025390625,0.01513671875,1.04248046875,0.0,0.0,0.0,0.7745361328125,0.46142578125,-56.5411376953125,1.0426407773404607,0.0
1783054626.2855473,2026-07-03T13:57:06.285,-0.00830078125,0.015625,1.04296875,0.0,0.0,0.0,0.7745361328125,0.46142578125,-56.5411376953125,1.043118812538113,0.0
1783054626.3125458,2026-07-03T13:57:06.312,-0.00927734375,0.015625,1.04345703125,0.0,0.0,0.0,0.7745361328125,0.46142578125,-56.5411376953125,1.0436152479707832,0.0
1783054626.3125458,2026-07-03T13:57:06.312,-0.01123046875,0.0146484375,1.04248046875,0.0,0.0,0.0,0.7745361328125,0.46142578125,-56.5411376953125,1.0426438643538627,0.0
1783054626.3125458,2026-07-03T13:57:06.312,-0.00830078125,0.0146484375,1.0400390625,0.0,0.0,0.0,0.7745361328125,0.46142578125,-56.5411376953125,1.0401753367660813,0.0
1783054626.3125458,2026-07-03T13:57:06.312,-0.0107421875,0.0146484375,1.04248046875,0.0,0.0,0.0,0.7745361328125,0.46142578125,-56.5411376953125,1.0426387193264484,0.0
1783054626.3125458,2026-07-03T13:57:06.312,-0.0107421875,0.0146484375,1.04296875,0.0,0.0,0.0,0.7745361328125,0.46142578125,-56.5411376953125,1.043126926500337,0.0
1783054626.3125458,2026-07-03T13:57:06.312,-0.0078125,0.0146484375,1.04248046875,0.0,0.0,0.0,0.7745361328125,0.46142578125,-56.5411376953125,1.0426126507973423,0.0
1783054626.3125458,2026-07-03T13:57:06.312,-0.0107421875,0.015625,1.04150390625,0.0,0.0,0.0,0.7745361328125,0.46142578125,-56.5411376953125,1.0416764958235805,0.0
1783054626.3125458,2026-07-03T13:57:06.312,-0.00830078125,0.015625,1.0439453125,0.0,0.0,0.0,0.7745361328125,0.46142578125,-56.5411376953125,1.0440952346817234,0.0
1783054626.3427913,2026-07-03T13:57:06.342,-0.01171875,0.0166015625,1.04150390625,0.0,0.0,0.0,0.7745361328125,0.46142578125,-56.5411376953125,1.0417021300319074,0.0
1783054626.3427913,2026-07-03T13:57:06.342,-0.00927734375,0.017578125,1.04345703125,0.0,0.0,0.0,0.7745361328125,0.4669189453125,-56.5411376953125,1.043646317317622,0.0
1783054626.3427913,2026-07-03T13:57:06.342,-0.009765625,0.01708984375,1.0458984375,0.0,0.0,0.0,0.780029296875,0.4669189453125,-56.5411376953125,1.0460836351630693,0.0
1783054626.3427913,2026-07-03T13:57:06.342,-0.0087890625,0.015625,1.04296875,0.0,0.0,0.0,0.780029296875,0.4669189453125,-56.5411376953125,1.0431228123865337,0.0
1783054626.3427913,2026-07-03T13:57:06.342,-0.009765625,0.013671875,1.04345703125,0.0,0.0,0.0,0.780029296875,0.4669189453125,-56.5411376953125,1.04359228804295,0.0
1783054626.3427913,2026-07-03T13:57:06.342,-0.00830078125,0.01708984375,1.04443359375,0.0,0.0,0.0,0.780029296875,0.4669189453125,-56.5411376953125,1.0446063839946125,0.0
1783054626.3427913,2026-07-03T13:57:06.342,-0.00927734375,0.01611328125,1.04248046875,0.0,0.0,0.0,0.780029296875,0.4669189453125,-56.5411376953125,1.0426462653579673,0.0
1783054626.3427913,2026-07-03T13:57:06.342,-0.0078125,0.01611328125,1.04150390625,0.0,0.0,0.0,0.780029296875,0.4669189453125,-56.5411376953125,1.0416578419629454,0.0
1783054626.4028478,2026-07-03T13:57:06.402,-0.0107421875,0.01416015625,1.04541015625,0.0,0.0,0.0,0.780029296875,0.4669189453125,-56.5411376953125,1.0455612365653,0.0
1783054626.4028478,2026-07-03T13:57:06.402,-0.0087890625,0.0146484375,1.0419921875,0.0,0.0,0.0,0.780029296875,0.4669189453125,-56.5411376953125,1.0421322100155312,0.0
1783054626.4028478,2026-07-03T13:57:06.402,-0.0068359375,0.01611328125,1.0419921875,0.0,0.0,0.0,0.780029296875,0.4669189453125,-56.5411376953125,1.0421391877696475,0.0
1783054626.4028478,2026-07-03T13:57:06.402,-0.0087890625,0.0146484375,1.041015625,0.0,0.0,0.0,0.780029296875,0.4669189453125,-56.5411376953125,1.0411557788510617,0.0
1783054626.4028478,2026-07-03T13:57:06.402,-0.00927734375,0.015625,1.04345703125,0.0,0.0,0.0,0.780029296875,0.4669189453125,-56.53564453125,1.0436152479707832,0.0
1783054626.4028478,2026-07-03T13:57:06.402,-0.01123046875,0.01416015625,1.04296875,0.0,0.0,0.0,0.780029296875,0.4669189453125,-56.53564453125,1.0431253265691192,0.0
1783054626.4028478,2026-07-03T13:57:06.402,-0.0068359375,0.0166015625,1.04345703125,0.0,0.0,0.0,0.780029296875,0.4669189453125,-56.53564453125,1.0436114784650505,0.0
1783054626.4028478,2026-07-03T13:57:06.402,-0.01220703125,0.01513671875,1.0439453125,0.0,0.0,0.0,0.780029296875,0.4669189453125,-56.53564453125,1.0441264039172544,0.0
1783054626.4463627,2026-07-03T13:57:06.446,-0.01123046875,0.01513671875,1.04248046875,0.0,0.0,0.0,0.780029296875,0.4669189453125,-56.53564453125,1.0426508386838238,0.0
1783054626.4463627,2026-07-03T13:57:06.446,-0.0126953125,0.015625,1.0419921875,0.0,0.0,0.0,0.780029296875,0.4669189453125,-56.53564453125,1.0421866581354358,0.0
1783054626.4463627,2026-07-03T13:57:06.446,-0.01025390625,0.0146484375,1.04345703125,0.0,0.0,0.0,0.780029296875,0.4669189453125,-56.53564453125,1.0436102219601142,0.0
1783054626.4463627,2026-07-03T13:57:06.446,-0.00927734375,0.01416015625,1.04443359375,0.0,0.0,0.0,0.780029296875,0.4669189453125,-56.53564453125,1.0445707783035194,0.0
1783054626.4463627,2026-07-03T13:57:06.446,-0.01025390625,0.01513671875,1.04345703125,0.0,0.0,0.0,0.780029296875,0.4669189453125,-56.53564453125,1.043617189832059,0.0
1783054626.4463627,2026-07-03T13:57:06.446,-0.0087890625,0.01318359375,1.04052734375,0.0,0.0,0.0,0.780029296875,0.4669189453125,-56.53564453125,1.0406479749921318,0.0
1783054626.4463627,2026-07-03T13:57:06.446,-0.01025390625,0.01611328125,1.041015625,0.0,0.0,0.0,0.780029296875,0.4669189453125,-56.53564453125,1.0411908143660153,0.0
1783054626.4463627,2026-07-03T13:57:06.446,-0.009765625,0.01611328125,1.041015625,0.0,0.0,0.0,0.780029296875,0.4669189453125,-56.53564453125,1.0411861201333903,0.0
1783054626.4668021,2026-07-03T13:57:06.466,-0.00927734375,0.01513671875,1.0419921875,0.0,0.0,0.0,0.780029296875,0.4669189453125,-56.53564453125,1.0421434201551183,0.0
1783054626.4668021,2026-07-03T13:57:06.466,-0.01025390625,0.01416015625,1.0419921875,0.0,0.0,0.0,0.780029296875,0.4669189453125,-56.53564453125,1.0421388446025046,0.0
1783054626.4668021,2026-07-03T13:57:06.466,-0.009765625,0.015625,1.04443359375,0.0,0.0,0.0,0.780029296875,0.4669189453125,-56.53564453125,1.0445961132467327,0.0
1783054626.4668021,2026-07-03T13:57:06.466,-0.0107421875,0.01513671875,1.0419921875,0.0,0.0,0.0,0.780029296875,0.472412109375,-56.53564453125,1.0421574898535426,0.0
1783054626.4668021,2026-07-03T13:57:06.466,-0.0087890625,0.01611328125,1.04443359375,0.0,0.0,0.0,0.7855224609375,0.472412109375,-56.53564453125,1.0445948579261772,0.0
1783054626.4668021,2026-07-03T13:57:06.466,-0.0107421875,0.01416015625,1.04345703125,0.0,0.0,0.0,0.7855224609375,0.472412109375,-56.53564453125,1.0436083943138696,0.0
1783054626.467807,2026-07-03T13:57:06.467,-0.00732421875,0.0146484375,1.04345703125,0.0,0.0,0.0,0.7855224609375,0.472412109375,-56.53564453125,1.0435855484657464,0.0
1783054626.467807,2026-07-03T13:57:06.467,-0.0078125,0.013671875,1.0439453125,0.0,0.0,0.0,0.7855224609375,0.472412109375,-56.53564453125,1.0440640645156734,0.0
1783054626.5225363,2026-07-03T13:57:06.522,-0.01025390625,0.0146484375,1.04541015625,0.0,0.0,0.0,0.7855224609375,0.472412109375,-56.53564453125,1.0455630607979725,0.0
1783054626.5225363,2026-07-03T13:57:06.522,-0.01123046875,0.01416015625,1.04296875,0.0,0.0,0.0,0.7855224609375,0.472412109375,-56.53564453125,1.0431253265691192,0.0
1783054626.5225363,2026-07-03T13:57:06.522,-0.0107421875,0.01318359375,1.04345703125,0.0,0.0,0.0,0.7855224609375,0.472412109375,-56.53564453125,1.0435956007005365,0.0
1783054626.5225363,2026-07-03T13:57:06.522,-0.00927734375,0.015625,1.041015625,0.0,0.0,0.0,0.7855224609375,0.472412109375,-56.53564453125,1.041174212716679,0.0
1783054626.5225363,2026-07-03T13:57:06.522,-0.01123046875,0.01416015625,1.041015625,0.0,0.0,0.0,0.7855224609375,0.472412109375,-56.53564453125,1.04117249528957,0.0
1783054626.5225363,2026-07-03T13:57:06.522,-0.009765625,0.01611328125,1.04248046875,0.0,0.0,0.0,0.7855224609375,0.472412109375,-56.53564453125,1.0426507243509218,0.0
1783054626.5225363,2026-07-03T13:57:06.522,-0.0087890625,0.015625,1.04296875,0.0,0.0,0.0,0.7855224609375,0.472412109375,-56.53564453125,1.0431228123865337,0.0
1783054626.5225363,2026-07-03T13:57:06.522,-0.01025390625,0.013671875,1.04345703125,0.0,0.0,0.0,0.7855224609375,0.472412109375,-56.53564453125,1.043596971452324,0.0
1783054626.5545359,2026-07-03T13:57:06.554,-0.009765625,0.015625,1.04296875,0.0,0.0,0.0,0.7855224609375,0.472412109375,-56.53564453125,1.0431314977188653,0.0
1783054626.5545359,2026-07-03T13:57:06.554,-0.009765625,0.015625,1.04443359375,0.0,0.0,0.0,0.7855224609375,0.472412109375,-56.53564453125,1.0445961132467327,0.0
1783054626.5545359,2026-07-03T13:57:06.554,-0.0107421875,0.013671875,1.04296875,0.0,0.0,0.0,0.7855224609375,0.472412109375,-56.53564453125,1.043113669853321,0.0
1783054626.5545359,2026-07-03T13:57:06.554,-0.0087890625,0.015625,1.04248046875,0.0,0.0,0.0,0.7855224609375,0.472412109375,-56.53564453125,1.0426346032862368,0.0
1783054626.5545359,2026-07-03T13:57:06.554,-0.0087890625,0.0166015625,1.04150390625,0.0,0.0,0.0,0.7855224609375,0.472412109375,-56.53564453125,1.0416732915031848,0.0
1783054626.5545359,2026-07-03T13:57:06.554,-0.00927734375,0.01611328125,1.04248046875,0.0,0.0,0.0,0.7855224609375,0.472412109375,-56.53564453125,1.0426462653579673,0.0
1783054626.5545359,2026-07-03T13:57:06.554,-0.00927734375,0.01611328125,1.04248046875,0.0,0.0,0.0,0.7855224609375,0.472412109375,-56.53564453125,1.0426462653579673,0.0
1783054626.5545359,2026-07-03T13:57:06.554,-0.00927734375,0.017578125,1.0419921875,0.0,0.0,0.0,0.7855224609375,0.472412109375,-56.53564453125,1.042181739619634,0.0
1783054626.5820525,2026-07-03T13:57:06.582,-0.01171875,0.013671875,1.04345703125,0.0,0.0,0.0,0.7855224609375,0.472412109375,-56.53564453125,1.0436123922858724,0.0
1783054626.5830529,2026-07-03T13:57:06.583,-0.00927734375,0.015625,1.04150390625,0.0,0.0,0.0,0.7855224609375,0.472412109375,-56.53564453125,1.0416624196283863,0.0
1783054626.5830529,2026-07-03T13:57:06.583,-0.01171875,0.0166015625,1.04541015625,0.0,0.0,0.0,0.7855224609375,0.472412109375,-56.53564453125,1.045607639494688,0.0
1783054626.5830529,2026-07-03T13:57:06.583,-0.0107421875,0.01513671875,1.04248046875,0.0,0.0,0.0,0.7855224609375,0.472412109375,-56.53564453125,1.0426456936908248,0.0
1783054626.5830529,2026-07-03T13:57:06.583,-0.00927734375,0.015625,1.0439453125,0.0,0.0,0.0,0.7855224609375,0.472412109375,-56.53564453125,1.0441034552297863,0.0
1783054626.5830529,2026-07-03T13:57:06.583,-0.00927734375,0.015625,1.0439453125,0.0,0.0,0.0,0.7855224609375,0.4779052734375,-56.53564453125,1.0441034552297863,0.0
1783054626.5830529,2026-07-03T13:57:06.583,-0.009765625,0.01611328125,1.041015625,0.0,0.0,0.0,0.7855224609375,0.4779052734375,-56.53564453125,1.0411861201333903,0.0
1783054626.5830529,2026-07-03T13:57:06.583,-0.009765625,0.01708984375,1.0439453125,0.0,0.0,0.0,0.7855224609375,0.4779052734375,-56.53564453125,1.0441308565892318,0.0
1783054626.6445386,2026-07-03T13:57:06.644,-0.0107421875,0.015625,1.04345703125,0.0,0.0,0.0,0.7855224609375,0.4779052734375,-56.53564453125,1.0436292978267467,0.0
1783054626.6445386,2026-07-03T13:57:06.644,-0.00927734375,0.015625,1.0439453125,0.0,0.0,0.0,0.7855224609375,0.4779052734375,-56.53564453125,1.0441034552297863,0.0
1783054626.6445386,2026-07-03T13:57:06.644,-0.0107421875,0.017578125,1.04296875,0.0,0.0,0.0,0.7855224609375,0.4779052734375,-56.53564453125,1.0431721806812926,0.0
1783054626.6445386,2026-07-03T13:57:06.644,-0.00927734375,0.015625,1.04443359375,0.0,0.0,0.0,0.7855224609375,0.4779052734375,-56.5301513671875,1.0445916625579565,0.0
1783054626.6445386,2026-07-03T13:57:06.644,-0.0078125,0.0166015625,1.04443359375,0.0,0.0,0.0,0.791015625,0.4779052734375,-56.5301513671875,1.044594743806052,0.0
1783054626.6445386,2026-07-03T13:57:06.644,-0.0107421875,0.0146484375,1.04248046875,0.0,0.0,0.0,0.791015625,0.4779052734375,-56.5301513671875,1.0426387193264484,0.0
1783054626.6445386,2026-07-03T13:57:06.644,-0.0087890625,0.01513671875,1.04443359375,0.0,0.0,0.0,0.791015625,0.4779052734375,-56.5301513671875,1.0445802504488038,0.0
1783054626.6445386,2026-07-03T13:57:06.644,-0.00927734375,0.0166015625,1.0439453125,0.0,0.0,0.0,0.791015625,0.4779052734375,-56.5301513671875,1.044118526066471,0.0
1783054626.6719146,2026-07-03T13:57:06.671,-0.00927734375,0.0146484375,1.04052734375,0.0,0.0,0.0,0.791015625,0.4779052734375,-56.5301513671875,1.0406718017317842,0.0
1783054626.6719146,2026-07-03T13:57:06.671,-0.01171875,0.01513671875,1.0458984375,0.0,0.0,0.0,0.791015625,0.4779052734375,-56.5301513671875,1.046073606837024,0.0
1783054626.6719146,2026-07-03T13:57:06.671,-0.00927734375,0.015625,1.04248046875,0.0,0.0,0.0,0.791015625,0.4779052734375,-56.5301513671875,1.0426388336606667,0.0
1783054626.6729155,2026-07-03T13:57:06.672,-0.0107421875,0.01513671875,1.04296875,0.0,0.0,0.0,0.791015625,0.4779052734375,-56.5301513671875,1.0431338976005737,0.0
1783054626.6729155,2026-07-03T13:57:06.672,-0.00927734375,0.015625,1.0419921875,0.0,0.0,0.0,0.791015625,0.4779052734375,-56.5301513671875,1.0421506266097482,0.0
1783054626.6729155,2026-07-03T13:57:06.672,-0.00927734375,0.0146484375,1.04248046875,0.0,0.0,0.0,0.791015625,0.4779052734375,-56.5301513671875,1.0426246561219752,0.0
1783054626.6729155,2026-07-03T13:57:06.672,-0.009765625,0.01708984375,1.04248046875,0.0,0.0,0.0,0.791015625,0.4779052734375,-56.5301513671875,1.0426662735104937,0.0
1783054626.6729155,2026-07-03T13:57:06.672,-0.01025390625,0.0146484375,1.041015625,0.0,0.0,0.0,0.791015625,0.4779052734375,-56.5301513671875,1.0411691749224599,0.0
1783054626.7020473,2026-07-03T13:57:06.702,-0.00927734375,0.01416015625,1.04296875,0.0,0.0,0.0,0.791015625,0.4779052734375,-56.5301513671875,1.0431061272030966,0.0
1783054626.7020473,2026-07-03T13:57:06.702,-0.0087890625,0.01513671875,1.04296875,0.0,0.0,0.0,0.791015625,0.4779052734375,-56.5301513671875,1.0431156126483334,0.0
1783054626.7020473,2026-07-03T13:57:06.702,-0.01123046875,0.01611328125,1.04296875,0.0,0.0,0.0,0.791015625,0.4779052734375,-56.5301513671875,1.0431536678445552,0.0
1783054626.7030466,2026-07-03T13:57:06.703,-0.0107421875,0.015625,1.04345703125,0.0,0.0,0.0,0.791015625,0.4779052734375,-56.5301513671875,1.0436292978267467,0.0
1783054626.7030466,2026-07-03T13:57:06.703,-0.00927734375,0.01513671875,1.04443359375,0.0,0.0,0.0,0.791015625,0.4779052734375,-56.5301513671875,1.0445844729437215,0.0
1783054626.7030466,2026-07-03T13:57:06.703,-0.009765625,0.0146484375,1.0439453125,0.0,0.0,0.0,0.791015625,0.4779052734375,-56.5301513671875,1.0440937504092027,0.0
1783054626.7030466,2026-07-03T13:57:06.703,-0.01171875,0.01611328125,1.041015625,0.0,0.0,0.0,0.791015625,0.4779052734375,-56.5301513671875,1.0412062708360648,0.0
1783054626.7030466,2026-07-03T13:57:06.703,-0.01171875,0.017578125,1.041015625,0.0,0.0,0.0,0.791015625,0.4779052734375,-56.5301513671875,1.041229970311179,0.0
1783054626.7631788,2026-07-03T13:57:06.763,-0.01171875,0.0146484375,1.044921875,0.0,0.0,0.0,0.791015625,0.4833984375,-56.5301513671875,1.0450902500149304,0.0
1783054626.7631788,2026-07-03T13:57:06.763,-0.00927734375,0.0146484375,1.04345703125,0.0,0.0,0.0,0.791015625,0.4833984375,-56.5301513671875,1.0436010836968839,0.0
1783054626.7631788,2026-07-03T13:57:06.763,-0.01220703125,0.0166015625,1.04443359375,0.0,0.0,0.0,0.791015625,0.4833984375,-56.5301513671875,1.0446368532858297,0.0
1783054626.7631788,2026-07-03T13:57:06.763,-0.0078125,0.01611328125,1.04443359375,0.0,0.0,0.0,0.791015625,0.4833984375,-56.5301513671875,1.0445870977292566,0.0
1783054626.7631788,2026-07-03T13:57:06.763,-0.01220703125,0.01611328125,1.04248046875,0.0,0.0,0.0,0.791015625,0.4833984375,-56.5301513671875,1.0426764489379243,0.0
1783054626.7631788,2026-07-03T13:57:06.763,-0.009765625,0.015625,1.04345703125,0.0,0.0,0.0,0.791015625,0.4833984375,-56.5301513671875,1.0436197028236407,0.0
1783054626.7631788,2026-07-03T13:57:06.763,-0.009765625,0.01513671875,1.04443359375,0.0,0.0,0.0,0.791015625,0.4833984375,-56.5301513671875,1.0445889236631305,0.0
1783054626.7631788,2026-07-03T13:57:06.763,-0.00830078125,0.01513671875,1.044921875,0.0,0.0,0.0,0.7965087890625,0.4833984375,-56.5301513671875,1.0450644707755559,0.0
1783054626.793687,2026-07-03T13:57:06.793,-0.01025390625,0.01513671875,1.04345703125,0.0,0.0,0.0,0.7965087890625,0.4833984375,-56.5301513671875,1.043617189832059,0.0
1783054626.793687,2026-07-03T13:57:06.793,-0.01123046875,0.01611328125,1.04345703125,0.0,0.0,0.0,0.7965087890625,0.4833984375,-56.5301513671875,1.0436418625783703,0.0
1783054626.793687,2026-07-03T13:57:06.793,-0.00927734375,0.0126953125,1.04345703125,0.0,0.0,0.0,0.7965087890625,0.4833984375,-56.5301513671875,1.0435754961341281,0.0
1783054626.793687,2026-07-03T13:57:06.793,-0.0087890625,0.013671875,1.04345703125,0.0,0.0,0.0,0.7965087890625,0.4833984375,-56.5301513671875,1.0435836065455935,0.0
1783054626.793687,2026-07-03T13:57:06.793,-0.009765625,0.01416015625,1.04345703125,0.0,0.0,0.0,0.7965087890625,0.4833984375,-56.5301513671875,1.0435987991185733,0.0
1783054626.793687,2026-07-03T13:57:06.793,-0.00927734375,0.015625,1.04443359375,0.0,0.0,0.0,0.7965087890625,0.4833984375,-56.5301513671875,1.0445916625579565,0.0
1783054626.793687,2026-07-03T13:57:06.793,-0.01025390625,0.01416015625,1.04248046875,0.0,0.0,0.0,0.7965087890625,0.4833984375,-56.5301513671875,1.0426270571703133,0.0
1783054626.793687,2026-07-03T13:57:06.793,-0.0107421875,0.0146484375,1.04248046875,0.0,0.0,0.0,0.7965087890625,0.4833984375,-56.5301513671875,1.0426387193264484,0.0
1783054626.8256836,2026-07-03T13:57:06.825,-0.01025390625,0.01611328125,1.0419921875,0.0,0.0,0.0,0.7965087890625,0.4833984375,-56.5301513671875,1.0421672127048809,0.0
1783054626.8256836,2026-07-03T13:57:06.825,-0.00830078125,0.0146484375,1.04443359375,0.0,0.0,0.0,0.7965087890625,0.4833984375,-56.5301513671875,1.0445692947067187,0.0
1783054626.8256836,2026-07-03T13:57:06.825,-0.0087890625,0.01513671875,1.04345703125,0.0,0.0,0.0,0.7965087890625,0.4833984375,-56.5301513671875,1.043603825184255,0.0
1783054626.8256836,2026-07-03T13:57:06.825,-0.00830078125,0.0146484375,1.0419921875,0.0,0.0,0.0,0.7965087890625,0.4833984375,-56.5301513671875,1.0421282063650263,0.0
1783054626.8256836,2026-07-03T13:57:06.825,-0.0087890625,0.0126953125,1.04248046875,0.0,0.0,0.0,0.7965087890625,0.4833984375,-56.5301513671875,1.0425948140597676,0.0
1783054626.8256836,2026-07-03T13:57:06.825,-0.009765625,0.015625,1.04248046875,0.0,0.0,0.0,0.7965087890625,0.4833984375,-56.5301513671875,1.0426432926854037,0.0
1783054626.8256836,2026-07-03T13:57:06.825,-0.00927734375,0.01513671875,1.04296875,0.0,0.0,0.0,0.7965087890625,0.4833984375,-56.5301513671875,1.0431198410720288,0.0
1783054626.8256836,2026-07-03T13:57:06.825,-0.009765625,0.01416015625,1.04052734375,0.0,0.0,0.0,0.7965087890625,0.4833984375,-56.5301513671875,1.0406695107228305,0.0
1783054626.8820875,2026-07-03T13:57:06.882,-0.00927734375,0.01318359375,1.04052734375,0.0,0.0,0.0,0.7965087890625,0.4833984375,-56.5301513671875,1.0406522134424407,0.0
1783054626.8830857,2026-07-03T13:57:06.883,-0.01171875,0.01513671875,1.0400390625,0.0,0.0,0.0,0.7965087890625,0.4833984375,-56.5301513671875,1.040215218539874,0.0
1783054626.8830857,2026-07-03T13:57:06.883,-0.0107421875,0.01513671875,1.04296875,0.0,0.0,0.0,0.7965087890625,0.4833984375,-56.5301513671875,1.0431338976005737,0.0
1783054626.8830857,2026-07-03T13:57:06.883,-0.009765625,0.013671875,1.04345703125,0.0,0.0,0.0,0.7965087890625,0.4888916015625,-56.5301513671875,1.04359228804295,0.0
1783054626.8830857,2026-07-03T13:57:06.883,-0.009765625,0.0166015625,1.04248046875,0.0,0.0,0.0,0.7965087890625,0.4888916015625,-56.5301513671875,1.0426583846276314,0.0
1783054626.8830857,2026-07-03T13:57:06.883,-0.00830078125,0.01513671875,1.0419921875,0.0,0.0,0.0,0.7965087890625,0.4888916015625,-56.5301513671875,1.0421351841459494,0.0
1783054626.8830857,2026-07-03T13:57:06.883,-0.0107421875,0.015625,1.041015625,0.0,0.0,0.0,0.7965087890625,0.4888916015625,-56.5301513671875,1.0411882955121161,0.0
1783054626.8830857,2026-07-03T13:57:06.883,-0.009765625,0.0166015625,1.04296875,0.0,0.0,0.0,0.7965087890625,0.4888916015625,-56.5301513671875,1.0431465825978843,0.0
1783054626.9188097,2026-07-03T13:57:06.918,-0.00927734375,0.015625,1.0419921875,0.0,0.0,0.0,0.7965087890625,0.4888916015625,-56.524658203125,1.0421506266097482,0.0
1783054626.9188097,2026-07-03T13:57:06.918,-0.01025390625,0.01318359375,1.04443359375,0.0,0.0,0.0,0.7965087890625,0.4888916015625,-56.524658203125,1.044567126369143,0.0
1783054626.9188097,2026-07-03T13:57:06.918,-0.01123046875,0.01318359375,1.0419921875,0.0,0.0,0.0,0.7965087890625,0.4888916015625,-56.524658203125,1.0421360992612936,0.0
1783054626.9188097,2026-07-03T13:57:06.918,-0.0107421875,0.01416015625,1.0419921875,0.0,0.0,0.0,0.7965087890625,0.4888916015625,-56.524658203125,1.0421437633207544,0.0
1783054626.9188097,2026-07-03T13:57:06.918,-0.01171875,0.013671875,1.04345703125,0.0,0.0,0.0,0.7965087890625,0.4888916015625,-56.524658203125,1.0436123922858724,0.0
1783054626.9188097,2026-07-03T13:57:06.918,-0.00927734375,0.017578125,1.04248046875,0.0,0.0,0.0,0.7965087890625,0.4888916015625,-56.524658203125,1.0426699321025763,0.0
1783054626.9188097,2026-07-03T13:57:06.918,-0.0126953125,0.01708984375,1.04345703125,0.0,0.0,0.0,0.7965087890625,0.4888916015625,-56.524658203125,1.043674187562352,0.0
1783054626.9188097,2026-07-03T13:57:06.918,-0.00927734375,0.017578125,1.0419921875,0.0,0.0,0.0,0.7965087890625,0.4888916015625,-56.524658203125,1.042181739619634,0.0
1783054626.943093,2026-07-03T13:57:06.943,-0.00927734375,0.0166015625,1.04443359375,0.0,0.0,0.0,0.7965087890625,0.4888916015625,-56.524658203125,1.044606726351136,0.0
1783054626.943093,2026-07-03T13:57:06.943,-0.0107421875,0.013671875,1.04248046875,0.0,0.0,0.0,0.7965087890625,0.4888916015625,-56.524658203125,1.0426254564720356,0.0
1783054626.943093,2026-07-03T13:57:06.943,-0.00927734375,0.01416015625,1.041015625,0.0,0.0,0.0,0.7965087890625,0.4888916015625,-56.524658203125,1.0411532599124016,0.0
1783054626.943093,2026-07-03T13:57:06.943,-0.00927734375,0.0146484375,1.0419921875,0.0,0.0,0.0,0.7965087890625,0.4888916015625,-56.524658203125,1.0421364424293404,0.0
1783054626.943093,2026-07-03T13:57:06.943,-0.00732421875,0.01318359375,1.0419921875,0.0,0.0,0.0,0.7965087890625,0.4888916015625,-56.524658203125,1.0421013243132828,0.0
1783054626.943093,2026-07-03T13:57:06.943,-0.0107421875,0.015625,1.04345703125,0.0,0.0,0.0,0.7965087890625,0.4888916015625,-56.524658203125,1.0436292978267467,0.0
1783054626.943093,2026-07-03T13:57:06.943,-0.01025390625,0.0126953125,1.04150390625,0.0,0.0,0.0,0.7965087890625,0.4888916015625,-56.524658203125,1.041631748885788,0.0
1783054626.943093,2026-07-03T13:57:06.943,-0.01025390625,0.01708984375,1.04345703125,0.0,0.0,0.0,0.7965087890625,0.4888916015625,-56.524658203125,1.0436473453316721,0.0
1783054627.0031478,2026-07-03T13:57:07.003,-0.0087890625,0.01513671875,1.04345703125,0.0,0.0,0.0,0.7965087890625,0.4888916015625,-56.524658203125,1.043603825184255,0.0
1783054627.0031478,2026-07-03T13:57:07.003,-0.0107421875,0.01513671875,1.04296875,0.0,0.0,0.0,0.7965087890625,0.4888916015625,-56.524658203125,1.0431338976005737,0.0
1783054627.0031478,2026-07-03T13:57:07.003,-0.0078125,0.0126953125,1.0419921875,0.0,0.0,0.0,0.7965087890625,0.4888916015625,-56.524658203125,1.0420988076601747,0.0
1783054627.0031478,2026-07-03T13:57:07.003,-0.00830078125,0.017578125,1.04248046875,0.0,0.0,0.0,0.7965087890625,0.4888916015625,-56.524658203125,1.0426617002523377,0.0
1783054627.0031478,2026-07-03T13:57:07.003,-0.0107421875,0.01611328125,1.04296875,0.0,0.0,0.0,0.802001953125,0.4888916015625,-56.524658203125,1.0431485253315989,0.0
1783054627.0031478,2026-07-03T13:57:07.003,-0.00927734375,0.01416015625,1.04248046875,0.0,0.0,0.0,0.802001953125,0.4888916015625,-56.524658203125,1.0426179102899105,0.0
1783054627.0031478,2026-07-03T13:57:07.003,-0.01025390625,0.01416015625,1.044921875,0.0,0.0,0.0,0.802001953125,0.4888916015625,-56.524658203125,1.045068120971989,0.0
1783054627.0031478,2026-07-03T13:57:07.003,-0.01123046875,0.0166015625,1.04296875,0.0,0.0,0.0,0.802001953125,0.4888916015625,-56.524658203125,1.0431613244279854,0.0
1783054627.062848,2026-07-03T13:57:07.062,-0.0107421875,0.01513671875,1.04345703125,0.0,0.0,0.0,0.802001953125,0.4888916015625,-56.524658203125,1.0436221015826874,0.0
1783054627.0638447,2026-07-03T13:57:07.063,-0.009765625,0.0166015625,1.0439453125,0.0,0.0,0.0,0.802001953125,0.494384765625,-56.524658203125,1.0441229787720432,0.0
1783054627.0638447,2026-07-03T13:57:07.063,-0.009765625,0.01611328125,1.04150390625,0.0,0.0,0.0,0.802001953125,0.494384765625,-56.524658203125,1.0416743214643869,0.0
1783054627.0638447,2026-07-03T13:57:07.063,-0.0126953125,0.01611328125,1.044921875,0.0,0.0,0.0,0.802001953125,0.494384765625,-56.524658203125,1.04512321457598,0.0
1783054627.0638447,2026-07-03T13:57:07.063,-0.01220703125,0.013671875,1.04345703125,0.0,0.0,0.0,0.802001953125,0.494384765625,-56.524658203125,1.0436179894209459,0.0
1783054627.0638447,2026-07-03T13:57:07.063,-0.009765625,0.01513671875,1.0419921875,0.0,0.0,0.0,0.802001953125,0.494384765625,-56.524658203125,1.0421478812995746,0.0
1783054627.0638447,2026-07-03T13:57:07.063,-0.00732421875,0.01416015625,1.0458984375,0.0,0.0,0.0,0.802001953125,0.494384765625,-56.524658203125,1.0460199308666465,0.0
1783054627.0638447,2026-07-03T13:57:07.063,-0.00927734375,0.01611328125,1.04541015625,0.0,0.0,0.0,0.802001953125,0.494384765625,-56.524658203125,1.0455754882983566,0.0
1783054627.0939293,2026-07-03T13:57:07.093,-0.01025390625,0.01318359375,1.04345703125,0.0,0.0,0.0,0.802001953125,0.494384765625,-56.524658203125,1.0435906888251794,0.0
1783054627.0939293,2026-07-03T13:57:07.093,-0.00830078125,0.01416015625,1.04248046875,0.0,0.0,0.0,0.802001953125,0.494384765625,-56.524658203125,1.0426096780289373,0.0
1783054627.0939293,2026-07-03T13:57:07.093,-0.01025390625,0.01611328125,1.04150390625,0.0,0.0,0.0,0.802001953125,0.494384765625,-56.524658203125,1.0416790134969764,0.0
1783054627.0939293,2026-07-03T13:57:07.093,-0.009765625,0.01513671875,1.04248046875,0.0,0.0,0.0,0.802001953125,0.494384765625,-56.524658203125,1.0426360896359654,0.0
1783054627.0939293,2026-07-03T13:57:07.093,-0.01123046875,0.01611328125,1.04248046875,0.0,0.0,0.0,0.802001953125,0.494384765625,-56.524658203125,1.0426654731917644,0.0
1783054627.0939293,2026-07-03T13:57:07.093,-0.0107421875,0.01513671875,1.0439453125,0.0,0.0,0.0,0.802001953125,0.494384765625,-56.524658203125,1.0441103056370646,0.0
1783054627.0939293,2026-07-03T13:57:07.093,-0.00927734375,0.015625,1.04541015625,0.0,0.0,0.0,0.802001953125,0.494384765625,-56.524658203125,1.0455680774214107,0.0
1783054627.0939293,2026-07-03T13:57:07.093,-0.01123046875,0.0146484375,1.04150390625,0.0,0.0,0.0,0.802001953125,0.494384765625,-56.524658203125,1.0416674550371365,0.0
