time,ts_iso,ax,ay,az,wx,wy,wz,roll,pitch,yaw,acc_mag,gyro_mag
1779347254.898308,2026-05-21T16:07:34.898,-0.001953125,0.0234375,1.04052734375,0.30517578125,0.0,1.46484375,1.4007568359375,0.1043701171875,-25.9661865234375,1.040793103452817,1.4962952480628984
1779347254.898308,2026-05-21T16:07:34.898,-0.001953125,0.0234375,1.04150390625,0.18310546875,0.06103515625,1.46484375,1.4007568359375,0.1043701171875,-25.960693359375,1.0417694168276992,1.4775046920056403
1779347254.898308,2026-05-21T16:07:34.898,-0.001953125,0.02392578125,1.044921875,0.30517578125,0.1220703125,1.3427734375,1.4007568359375,0.1043701171875,-25.9552001953125,1.0451975806321043,1.3824159732551422
1779347254.8993075,2026-05-21T16:07:34.899,-0.0009765625,0.0234375,1.04296875,0.1220703125,0.1220703125,1.40380859375,1.4007568359375,0.1043701171875,-25.94970703125,1.0432325165355656,1.4143835725410727
1779347254.8993075,2026-05-21T16:07:34.899,-0.00146484375,0.02392578125,1.04833984375,0.244140625,0.06103515625,1.5869140625,1.4007568359375,0.1043701171875,-25.9442138671875,1.0486138549387038,1.606743967417991
1779347254.8993075,2026-05-21T16:07:34.899,-0.00146484375,0.0224609375,1.046875,0.18310546875,0.06103515625,1.46484375,1.4007568359375,0.1043701171875,-25.938720703125,1.0471169491062546,1.4775046920056403
1779347254.8993075,2026-05-21T16:07:34.899,-0.001953125,0.02490234375,1.044921875,0.3662109375,0.06103515625,1.52587890625,1.4007568359375,0.1043701171875,-25.9332275390625,1.0452203912453222,1.5703955481284921
1779347254.8993075,2026-05-21T16:07:34.899,-0.00146484375,0.0234375,1.0478515625,0.244140625,0.06103515625,1.46484375,1.40625,0.1043701171875,-25.927734375,1.0481146689208931,1.4863031813825587
1779347254.9283097,2026-05-21T16:07:34.928,-0.0009765625,0.02392578125,1.046875,0.18310546875,-0.1220703125,1.46484375,1.40625,0.1043701171875,-25.9222412109375,1.0471488252907222,1.4812818724989743
1779347254.9283097,2026-05-21T16:07:34.928,0.00048828125,0.02294921875,1.04541015625,0.30517578125,0.06103515625,1.52587890625,1.40625,0.1043701171875,-25.9222412109375,1.0456621346546235,1.557293801534799
1779347254.9283097,2026-05-21T16:07:34.928,-0.00048828125,0.021484375,1.041015625,0.18310546875,0.18310546875,1.46484375,1.40625,0.1043701171875,-25.916748046875,1.0412374120640597,1.4875558602238697
1779347254.9283097,2026-05-21T16:07:34.928,-0.00048828125,0.0205078125,1.04931640625,0.18310546875,0.0,1.64794921875,1.40625,0.1043701171875,-25.9112548828125,1.0495169027783828,1.6580905404304351
1779347254.9293096,2026-05-21T16:07:34.929,-0.0029296875,0.0224609375,1.04052734375,0.3662109375,0.18310546875,1.46484375,1.40625,0.1043701171875,-25.90576171875,1.0407738610638035,1.5209882561495498
1779347254.9293096,2026-05-21T16:07:34.929,-0.0048828125,0.02197265625,1.0419921875,0.244140625,0.18310546875,1.46484375,1.4117431640625,0.1043701171875,-25.90576171875,1.0422352701245654,1.4962952480628984
1779347254.9293096,2026-05-21T16:07:34.929,-0.00341796875,0.0234375,1.04345703125,0.30517578125,-0.06103515625,1.46484375,1.4117431640625,0.1043701171875,-25.9002685546875,1.0437258140822663,1.497539568650549
1779347254.9293096,2026-05-21T16:07:34.929,-0.00048828125,0.0224609375,1.04150390625,0.30517578125,-0.06103515625,1.52587890625,1.4117431640625,0.1043701171875,-25.894775390625,1.0417461873536984,1.557293801534799
1779347254.9881294,2026-05-21T16:07:34.988,-0.001953125,0.0234375,1.04345703125,0.18310546875,-0.1220703125,1.46484375,1.4117431640625,0.1043701171875,-25.894775390625,1.0437220449758542,1.4812818724989743
1779347254.9881294,2026-05-21T16:07:34.988,-0.0009765625,0.0224609375,1.0439453125,0.30517578125,0.0,1.46484375,1.4117431640625,0.1043701171875,-25.8892822265625,1.0441873696221469,1.4962952480628984
1779347254.9881294,2026-05-21T16:07:34.988,-0.001953125,0.0234375,1.0380859375,0.3662109375,0.06103515625,1.46484375,1.4117431640625,0.1043701171875,-25.8892822265625,1.0383523220654778,1.5111594730395443
1779347254.9881294,2026-05-21T16:07:34.988,-0.00048828125,0.0224609375,1.046875,0.3662109375,0.06103515625,1.40380859375,1.417236328125,0.1043701171875,-25.8837890625,1.0471160383438685,1.4520724186243066
1779347254.9881294,2026-05-21T16:07:34.988,-0.00341796875,0.0234375,1.041015625,0.244140625,0.18310546875,1.46484375,1.417236328125,0.1043701171875,-25.8782958984375,1.041285038023099,1.4962952480628984
1779347254.9881294,2026-05-21T16:07:34.988,-0.0009765625,0.02490234375,1.0439453125,0.30517578125,0.1220703125,1.40380859375,1.417236328125,0.1043701171875,-25.8782958984375,1.044242738011274,1.4417739027121237
1779347254.9891095,2026-05-21T16:07:34.989,0.0,0.0224609375,1.05126953125,0.1220703125,0.0,1.40380859375,1.417236328125,0.1043701171875,-25.872802734375,1.0515094488629066,1.4091060034930658
1779347254.9891095,2026-05-21T16:07:34.989,-0.0009765625,0.02392578125,1.03955078125,0.244140625,-0.06103515625,1.52587890625,1.417236328125,0.1043701171875,-25.8673095703125,1.0398265352837581,1.5464916332177645
1779347255.0184722,2026-05-21T16:07:35.018,-0.001953125,0.0234375,1.046875,0.244140625,0.1220703125,1.5869140625,1.417236328125,0.1043701171875,-25.86181640625,1.0471391486944395,1.6102180124844871
1779347255.0184722,2026-05-21T16:07:35.018,-0.0009765625,0.02197265625,1.05078125,0.244140625,0.06103515625,1.46484375,1.417236328125,0.1043701171875,-25.8563232421875,1.0510114112837023,1.4863031813825587
1779347255.0184722,2026-05-21T16:07:35.018,-0.00048828125,0.021484375,1.0419921875,0.1220703125,0.0,1.52587890625,1.417236328125,0.1043701171875,-25.850830078125,1.0422137667478562,1.530753931150446
1779347255.0184722,2026-05-21T16:07:35.018,-0.00244140625,0.02099609375,1.0458984375,0.244140625,0.1220703125,1.46484375,1.4227294921875,0.1043701171875,-25.850830078125,1.0461120102465977,1.490058058561243
1779347255.0184722,2026-05-21T16:07:35.018,-0.00048828125,0.02197265625,1.04541015625,0.06103515625,0.06103515625,1.46484375,1.4227294921875,0.1043701171875,-25.8453369140625,1.0456411577744582,1.4673846777552866
1779347255.0184722,2026-05-21T16:07:35.018,-0.00146484375,0.02099609375,1.0439453125,0.1220703125,0.1220703125,1.52587890625,1.4227294921875,0.1043701171875,-25.83984375,1.0441574580544322,1.5356134796641998
1779347255.0184722,2026-05-21T16:07:35.018,-0.0009765625,0.02197265625,1.04150390625,0.3662109375,0.18310546875,1.46484375,1.4227294921875,0.1043701171875,-25.8343505859375,1.0417361172729904,1.5209882561495498
1779347255.0184722,2026-05-21T16:07:35.018,0.0,0.021484375,1.044921875,0.18310546875,0.06103515625,1.46484375,1.4227294921875,0.1043701171875,-25.8343505859375,1.045142719068863,1.4775046920056403
1779347255.0478628,2026-05-21T16:07:35.047,-0.00244140625,0.0234375,1.04296875,0.30517578125,0.06103515625,1.40380859375,1.4227294921875,0.1043701171875,-25.828857421875,1.043234916184888,1.4378929430407406
1779347255.0478628,2026-05-21T16:07:35.047,-0.0029296875,0.0234375,1.04345703125,0.244140625,0.06103515625,1.52587890625,1.4227294921875,0.1043701171875,-25.8233642578125,1.0437243292843954,1.5464916332177645
1779347255.0478628,2026-05-21T16:07:35.047,-0.00244140625,0.02392578125,1.04736328125,0.3662109375,0.1220703125,1.5869140625,1.4227294921875,0.1043701171875,-25.81787109375,1.0476393684773722,1.633189472687946
1779347255.0478628,2026-05-21T16:07:35.047,-0.0009765625,0.02392578125,1.03857421875,0.30517578125,0.06103515625,1.46484375,1.42822265625,0.1043701171875,-25.8123779296875,1.038850232004071,1.497539568650549
1779347255.0488591,2026-05-21T16:07:35.048,-0.0009765625,0.02490234375,1.04443359375,0.30517578125,0.06103515625,1.3427734375,1.42822265625,0.1043701171875,-25.806884765625,1.0447308802519908,1.3783678943647724
1779347255.0488591,2026-05-21T16:07:35.048,-0.0029296875,0.02197265625,1.044921875,0.06103515625,0.06103515625,1.52587890625,1.42822265625,0.1043701171875,-25.8013916015625,1.0451569765088131,1.528318362493764
1779347255.0488591,2026-05-21T16:07:35.048,-0.00146484375,0.0234375,1.04052734375,0.3662109375,0.0,1.52587890625,1.42822265625,0.1043701171875,-25.7904052734375,1.0407923016937108,1.569209000510552
1779347255.0488591,2026-05-21T16:07:35.048,-0.001953125,0.0244140625,1.0458984375,0.244140625,0.06103515625,1.52587890625,1.42822265625,0.1043701171875,-25.784912109375,1.0461851665503392,1.5464916332177645
1779347255.1093502,2026-05-21T16:07:35.109,-0.001953125,0.02197265625,1.0458984375,0.30517578125,0.1220703125,1.46484375,1.42822265625,0.1043701171875,-25.7794189453125,1.0461310404939181,1.5012663423155326
1779347255.1093502,2026-05-21T16:07:35.109,-0.00048828125,0.0234375,1.0439453125,0.48828125,0.1220703125,1.52587890625,1.4337158203125,0.1043701171875,-25.77392578125,1.0442084898695048,1.606743967417991
1779347255.1103487,2026-05-21T16:07:35.110,-0.00048828125,0.021484375,1.04638671875,0.18310546875,0.0,1.46484375,1.4337158203125,0.1043701171875,-25.7684326171875,1.0466073676236525,1.4762434841855254
1779347255.1103487,2026-05-21T16:07:35.110,-0.001953125,0.0224609375,1.03759765625,0.244140625,0.1220703125,1.52587890625,1.4337158203125,0.1043701171875,-25.762939453125,1.0378425721977962,1.5501007201172234
1779347255.1103487,2026-05-21T16:07:35.110,-0.001953125,0.02197265625,1.04345703125,0.30517578125,0.06103515625,1.46484375,1.4337158203125,0.1043701171875,-25.7574462890625,1.0436901783503616,1.497539568650549
1779347255.1103487,2026-05-21T16:07:35.110,-0.0029296875,0.0224609375,1.04541015625,0.18310546875,0.0,1.46484375,1.4337158203125,0.1043701171875,-25.7574462890625,1.0456555224225978,1.4762434841855254
1779347255.1103487,2026-05-21T16:07:35.110,-0.00439453125,0.0234375,1.0400390625,0.18310546875,-0.1220703125,1.46484375,1.4337158203125,0.1043701171875,-25.751953125,1.0403123953106759,1.4812818724989743
1779347255.1103487,2026-05-21T16:07:35.110,-0.0009765625,0.0224609375,1.04638671875,0.3662109375,0.18310546875,1.46484375,1.439208984375,0.1043701171875,-25.7464599609375,1.046628211240308,1.5209882561495498
1779347255.1393502,2026-05-21T16:07:35.139,-0.0009765625,0.0234375,1.041015625,0.3662109375,0.0,1.5869140625,1.439208984375,0.1043701171875,-25.740966796875,1.0412798862816408,1.6286211015779215
1779347255.1393502,2026-05-21T16:07:35.139,0.0,0.02099609375,1.0439453125,0.42724609375,0.1220703125,1.52587890625,1.439208984375,0.1043701171875,-25.72998046875,1.0441564305426085,1.589259834752385
1779347255.1393502,2026-05-21T16:07:35.139,-0.00341796875,0.0234375,1.04638671875,0.30517578125,0.06103515625,1.52587890625,1.439208984375,0.1043701171875,-25.7244873046875,1.046654749233489,1.557293801534799
1779347255.1393502,2026-05-21T16:07:35.139,-0.00146484375,0.02294921875,1.04150390625,0.244140625,0.06103515625,1.52587890625,1.439208984375,0.1043701171875,-25.718994140625,1.0417577449399913,1.5464916332177645
1779347255.1393502,2026-05-21T16:07:35.139,-0.0009765625,0.02392578125,1.04541015625,0.3662109375,0.06103515625,1.5869140625,1.4447021484375,0.1043701171875,-25.7135009765625,1.045684365128115,1.6297643948753282
1779347255.1393502,2026-05-21T16:07:35.139,-0.0009765625,0.02099609375,1.03955078125,0.244140625,0.0,1.46484375,1.4447021484375,0.1043701171875,-25.7080078125,1.0397632501798477,1.4850494458735888
1779347255.1393502,2026-05-21T16:07:35.139,-0.001953125,0.02099609375,1.04638671875,0.244140625,-0.06103515625,1.52587890625,1.4447021484375,0.1043701171875,-25.7025146484375,1.0465991667426533,1.5464916332177645
1779347255.1393502,2026-05-21T16:07:35.139,-0.001953125,0.0234375,1.0400390625,0.3662109375,0.06103515625,1.52587890625,1.4447021484375,0.1043701171875,-25.6915283203125,1.040304946940749,1.5703955481284921
1779347255.1685963,2026-05-21T16:07:35.168,-0.00048828125,0.0234375,1.04541015625,0.3662109375,0.0,1.52587890625,1.4447021484375,0.1043701171875,-25.68603515625,1.045672964944336,1.569209000510552
1779347255.1695912,2026-05-21T16:07:35.169,-0.0029296875,0.0224609375,1.04345703125,0.30517578125,0.1220703125,1.46484375,1.4447021484375,0.1043701171875,-25.6805419921875,1.043702856586725,1.5012663423155326
1779347255.1695912,2026-05-21T16:07:35.169,-0.0009765625,0.0234375,1.0400390625,0.244140625,0.1220703125,1.52587890625,1.4501953125,0.1043701171875,-25.675048828125,1.0403035718512388,1.5501007201172234
1779347255.1695912,2026-05-21T16:07:35.169,-0.00439453125,0.0224609375,1.04443359375,0.30517578125,0.06103515625,1.52587890625,1.4501953125,0.1043701171875,-25.6695556640625,1.0446843242682577,1.557293801534799
1779347255.1695912,2026-05-21T16:07:35.169,-0.00146484375,0.021484375,1.0419921875,0.18310546875,0.244140625,1.52587890625,1.4501953125,0.10986328125,-25.6640625,1.042214681794201,1.556097263669673
1779347255.1695912,2026-05-21T16:07:35.169,-0.00146484375,0.02099609375,1.044921875,0.3662109375,0.06103515625,1.52587890625,1.4501953125,0.10986328125,-25.6585693359375,1.045133822327785,1.5703955481284921
1779347255.1695912,2026-05-21T16:07:35.169,-0.00146484375,0.021484375,1.04443359375,0.1220703125,0.1220703125,1.40380859375,1.4501953125,0.10986328125,-25.6585693359375,1.0446555680653278,1.4143835725410727
1779347255.1695912,2026-05-21T16:07:35.169,-0.0009765625,0.021484375,1.044921875,0.30517578125,0.06103515625,1.52587890625,1.4501953125,0.10986328125,-25.653076171875,1.0451431753099538,1.557293801534799
1779347255.227175,2026-05-21T16:07:35.227,-0.001953125,0.02294921875,1.0439453125,0.30517578125,0.1220703125,1.46484375,1.4501953125,0.10986328125,-25.6475830078125,1.0441993568419892,1.5012663423155326
1779347255.227175,2026-05-21T16:07:35.227,-0.00146484375,0.01904296875,1.04345703125,0.18310546875,0.1220703125,1.5869140625,1.4501953125,0.10986328125,-25.64208984375,1.0436318107891733,1.6021001890144881
1779347255.2282116,2026-05-21T16:07:35.228,-0.0029296875,0.02392578125,1.04296875,0.3662109375,0.06103515625,1.46484375,1.4556884765625,0.10986328125,-25.6365966796875,1.0432472571513587,1.5111594730395443
1779347255.2282116,2026-05-21T16:07:35.228,-0.00146484375,0.02197265625,1.0439453125,0.18310546875,0.0,1.46484375,1.4556884765625,0.10986328125,-25.6365966796875,1.0441775514157614,1.4762434841855254
1779347255.2282116,2026-05-21T16:07:35.228,-0.0029296875,0.02392578125,1.04638671875,0.30517578125,0.1220703125,1.5869140625,1.4556884765625,0.10986328125,-25.631103515625,1.0466643164136542,1.6205954647646184
1779347255.2282116,2026-05-21T16:07:35.228,-0.00439453125,0.0224609375,1.0419921875,0.30517578125,0.1220703125,1.52587890625,1.4556884765625,0.10986328125,-25.6256103515625,1.0422435053428356,1.5608779116875515
1779347255.2282116,2026-05-21T16:07:35.228,-0.00341796875,0.0224609375,1.04541015625,0.18310546875,0.06103515625,1.52587890625,1.4556884765625,0.10986328125,-25.6256103515625,1.0456570044782392,1.5380374961369816
1779347255.2282116,2026-05-21T16:07:35.228,0.0,0.021484375,1.0419921875,0.244140625,0.1220703125,1.52587890625,1.4556884765625,0.10986328125,-25.6201171875,1.0422136523670067,1.5501007201172234
1779347255.2581732,2026-05-21T16:07:35.258,-0.00341796875,0.021484375,1.041015625,0.244140625,0.06103515625,1.40380859375,1.4556884765625,0.10986328125,-25.6146240234375,1.0412429074782008,1.4261866998959867
1779347255.2581732,2026-05-21T16:07:35.258,-0.00341796875,0.02392578125,1.046875,0.42724609375,0.1220703125,1.5869140625,1.461181640625,0.10986328125,-25.609130859375,1.0471539481584353,1.64794921875
1779347255.2581732,2026-05-21T16:07:35.258,0.0,0.02392578125,1.03955078125,0.244140625,-0.06103515625,1.52587890625,1.461181640625,0.10986328125,-25.6036376953125,1.0398260767099026,1.5464916332177645
1779347255.2581732,2026-05-21T16:07:35.258,-0.00048828125,0.02392578125,1.046875,0.30517578125,0.18310546875,1.46484375,1.461181640625,0.10986328125,-25.59814453125,1.0471484837653169,1.5074571576206628
1779347255.2581732,2026-05-21T16:07:35.258,-0.001953125,0.02197265625,1.041015625,0.30517578125,0.06103515625,1.40380859375,1.461181640625,0.10986328125,-25.5926513671875,1.0412493187580423,1.4378929430407406
1779347255.2581732,2026-05-21T16:07:35.258,-0.00048828125,0.02099609375,1.046875,0.30517578125,0.1220703125,1.64794921875,1.461181640625,0.10986328125,-25.5816650390625,1.047085641194806,1.6804077023847905
1779347255.2581732,2026-05-21T16:07:35.258,-0.0009765625,0.02197265625,1.0478515625,0.30517578125,0.1220703125,1.40380859375,1.461181640625,0.10986328125,-25.576171875,1.048082367149972,1.4417739027121237
1779347255.2581732,2026-05-21T16:07:35.258,-0.00244140625,0.02197265625,1.0419921875,0.244140625,0.0,1.52587890625,1.461181640625,0.10986328125,-25.5706787109375,1.0422266917030063,1.5452867311001175
1779347255.3179276,2026-05-21T16:07:35.317,-0.00146484375,0.02197265625,1.0419921875,0.3662109375,0.1220703125,1.5869140625,1.4666748046875,0.10986328125,-25.565185546875,1.042224861630602,1.633189472687946
1779347255.3179276,2026-05-21T16:07:35.317,-0.0009765625,0.02099609375,1.0439453125,0.30517578125,0.06103515625,1.46484375,1.4666748046875,0.10986328125,-25.5596923828125,1.044156887214655,1.497539568650549
1779347255.3189266,2026-05-21T16:07:35.318,-0.0029296875,0.02001953125,1.0478515625,0.244140625,-0.06103515625,1.52587890625,1.4666748046875,0.10986328125,-25.55419921875,1.0480468795497693,1.5464916332177645
1779347255.3189266,2026-05-21T16:07:35.318,-0.00048828125,0.02294921875,1.04541015625,0.18310546875,0.06103515625,1.40380859375,1.4666748046875,0.10986328125,-25.5487060546875,1.0456621346546235,1.4170149861137573
1779347255.3189266,2026-05-21T16:07:35.318,-0.00146484375,0.0224609375,1.04443359375,0.244140625,0.18310546875,1.64794921875,1.4666748046875,0.10986328125,-25.543212890625,1.0446761082910487,1.675968044158445
1779347255.3189266,2026-05-21T16:07:35.318,-0.00048828125,0.0205078125,1.046875,0.18310546875,0.0,1.46484375,1.4666748046875,0.10986328125,-25.5377197265625,1.047075964014605,1.4762434841855254
1779347255.3189266,2026-05-21T16:07:35.318,-0.00244140625,0.02392578125,1.04296875,0.3662109375,0.18310546875,1.52587890625,1.4666748046875,0.1153564453125,-25.5322265625,1.0432460002077473,1.5798558478448224
1779347255.3189266,2026-05-21T16:07:35.318,-0.0029296875,0.025390625,1.044921875,0.30517578125,0.06103515625,1.40380859375,1.4666748046875,0.1153564453125,-25.5267333984375,1.0452344195252345,1.4378929430407406
1779347255.3478088,2026-05-21T16:07:35.347,-0.00048828125,0.02392578125,1.04541015625,0.18310546875,0.06103515625,1.52587890625,1.4666748046875,0.1153564453125,-25.521240234375,1.0456840231244098,1.5380374961369816
1779347255.3478088,2026-05-21T16:07:35.347,-0.00146484375,0.0224609375,1.041015625,0.3662109375,0.0,1.52587890625,1.47216796875,0.1153564453125,-25.5157470703125,1.041258935603787,1.569209000510552
1779347255.3478088,2026-05-21T16:07:35.347,-0.00048828125,0.0244140625,1.04345703125,0.1220703125,0.1220703125,1.46484375,1.47216796875,0.1153564453125,-25.5157470703125,1.0437427177860434,1.474981197948556
1779347255.3478088,2026-05-21T16:07:35.347,-0.00244140625,0.0234375,1.04443359375,0.244140625,0.18310546875,1.3427734375,1.47216796875,0.1153564453125,-25.51025390625,1.0446993867253238,1.3770158902195406
1779347255.3478088,2026-05-21T16:07:35.347,-0.00146484375,0.02197265625,1.0390625,0.42724609375,0.1220703125,1.40380859375,1.47216796875,0.1153564453125,-25.5047607421875,1.0392958300196065,1.4724533791277854
1779347255.3478088,2026-05-21T16:07:35.347,-0.0009765625,0.02197265625,1.04833984375,0.1220703125,0.06103515625,1.52587890625,1.47216796875,0.1153564453125,-25.5047607421875,1.0485705409226274,1.5319702634290935
1779347255.3478088,2026-05-21T16:07:35.347,-0.00146484375,0.02392578125,1.04052734375,0.244140625,0.1220703125,1.52587890625,1.47216796875,0.1153564453125,-25.499267578125,1.040803411729163,1.5501007201172234
1779347255.3487918,2026-05-21T16:07:35.348,-0.0009765625,0.0234375,1.04296875,0.0,0.0,0.0,1.47216796875,0.1153564453125,-25.5047607421875,1.0432325165355656,0.0
1779347255.3779705,2026-05-21T16:07:35.377,-0.00244140625,0.02294921875,1.044921875,0.0,0.0,0.0,1.47216796875,0.1153564453125,-25.5047607421875,1.0451767084848516,0.0
1779347255.3779705,2026-05-21T16:07:35.377,-0.00341796875,0.02099609375,1.0400390625,0.0,0.0,0.0,1.47216796875,0.1153564453125,-25.51025390625,1.040256588534297,0.0
1779347255.3779705,2026-05-21T16:07:35.377,-0.0009765625,0.02197265625,1.046875,0.0,0.0,0.0,1.47216796875,0.1153564453125,-25.51025390625,1.0471060199053375,0.0
1779347255.3779705,2026-05-21T16:07:35.377,-0.001953125,0.021484375,1.04150390625,0.0,0.0,0.0,1.47216796875,0.1153564453125,-25.5157470703125,1.0417273058725183,0.0
1779347255.3779705,2026-05-21T16:07:35.377,-0.00244140625,0.02099609375,1.04345703125,0.0,0.0,0.0,1.4666748046875,0.1153564453125,-25.5157470703125,1.0436711035964825,0.0
1779347255.3779705,2026-05-21T16:07:35.377,-0.0009765625,0.0234375,1.04931640625,0.0,0.0,0.0,1.4666748046875,0.1153564453125,-25.5157470703125,1.0495785775757722,0.0
1779347255.3779705,2026-05-21T16:07:35.377,-0.0009765625,0.02392578125,1.04296875,0.0,0.0,0.0,1.4666748046875,0.1153564453125,-25.521240234375,1.04324360058392,0.0
1779347255.3779705,2026-05-21T16:07:35.377,-0.00341796875,0.0224609375,1.04248046875,0.0,0.0,0.0,1.4666748046875,0.1153564453125,-25.521240234375,1.0427280105324563,0.0
1779347255.4376507,2026-05-21T16:07:35.437,-0.00146484375,0.02587890625,1.04736328125,0.0,0.0,0.0,1.4666748046875,0.1153564453125,-25.5267333984375,1.047683972611338,0.0
1779347255.4376507,2026-05-21T16:07:35.437,-0.00244140625,0.0224609375,1.0458984375,0.0,0.0,0.0,1.4666748046875,0.1153564453125,-25.5267333984375,1.046142435685886,0.0
1779347255.4386566,2026-05-21T16:07:35.438,-0.00390625,0.02294921875,1.0341796875,0.0,0.0,0.0,1.4666748046875,0.1153564453125,-25.5322265625,1.0344416617034986,0.0
1779347255.4386566,2026-05-21T16:07:35.438,0.0,0.021484375,1.04736328125,0.0,0.0,0.0,1.4666748046875,0.1153564453125,-25.5322265625,1.0475836106392211,0.0
1779347255.4386566,2026-05-21T16:07:35.438,-0.001953125,0.0205078125,1.044921875,0.0,0.0,0.0,1.461181640625,0.1153564453125,-25.5377197265625,1.0451249255109727,0.0
1779347255.4386566,2026-05-21T16:07:35.438,-0.00244140625,0.0205078125,1.0380859375,0.0,0.0,0.0,1.461181640625,0.1153564453125,-25.5377197265625,1.0382913581809619,0.0
1779347255.4386566,2026-05-21T16:07:35.438,-0.0029296875,0.0234375,1.0458984375,0.0,0.0,0.0,1.461181640625,0.1153564453125,-25.543212890625,1.0461651117486375,0.0
1779347255.4386566,2026-05-21T16:07:35.438,0.00048828125,0.0224609375,1.044921875,0.0,0.0,0.0,1.461181640625,0.1153564453125,-25.543212890625,1.0451633637788276,0.0
1779347255.4679966,2026-05-21T16:07:35.467,-0.00244140625,0.02197265625,1.04443359375,0.0,0.0,0.0,1.461181640625,0.1153564453125,-25.5487060546875,1.0446675499127454,0.0
1779347255.4689958,2026-05-21T16:07:35.468,-0.001953125,0.0224609375,1.04296875,0.0,0.0,0.0,1.461181640625,0.1153564453125,-25.55419921875,1.0432124049718767,0.0
1779347255.4689958,2026-05-21T16:07:35.468,-0.0009765625,0.0205078125,1.0419921875,0.0,0.0,0.0,1.461181640625,0.1153564453125,-25.55419921875,1.0421944362060693,0.0
1779347255.4689958,2026-05-21T16:07:35.468,-0.0029296875,0.0244140625,1.0439453125,0.0,0.0,0.0,1.461181640625,0.1153564453125,-25.5596923828125,1.0442348610381307,0.0
1779347255.4689958,2026-05-21T16:07:35.468,-0.001953125,0.0224609375,1.04248046875,0.0,0.0,0.0,1.4556884765625,0.1153564453125,-25.5596923828125,1.0427242378193116,0.0
1779347255.4689958,2026-05-21T16:07:35.468,-0.001953125,0.02294921875,1.0458984375,0.0,0.0,0.0,1.4556884765625,0.1153564453125,-25.565185546875,1.0461520075512174,0.0
1779347255.4689958,2026-05-21T16:07:35.468,-0.0029296875,0.021484375,1.04296875,0.0,0.0,0.0,1.4556884765625,0.1153564453125,-25.565185546875,1.0431941213957021,0.0
1779347255.4689958,2026-05-21T16:07:35.468,-0.001953125,0.021484375,1.04345703125,0.0,0.0,0.0,1.4556884765625,0.1153564453125,-25.5706787109375,1.0436800128063533,0.0
1779347255.4979944,2026-05-21T16:07:35.497,-0.0009765625,0.0234375,1.04296875,0.0,0.0,0.0,1.4556884765625,0.1153564453125,-25.5706787109375,1.0432325165355656,0.0
1779347255.4979944,2026-05-21T16:07:35.497,-0.0009765625,0.02294921875,1.04150390625,0.0,0.0,0.0,1.4556884765625,0.1153564453125,-25.5706787109375,1.0417571727852708,0.0
1779347255.4989944,2026-05-21T16:07:35.498,0.0,0.02392578125,1.0439453125,0.0,0.0,0.0,1.4556884765625,0.1153564453125,-25.576171875,1.0442194493970822,0.0
1779347255.4989944,2026-05-21T16:07:35.498,-0.00048828125,0.0224609375,1.041015625,0.0,0.0,0.0,1.4556884765625,0.1153564453125,-25.576171875,1.0412580197175427,0.0
1779347255.4989944,2026-05-21T16:07:35.498,-0.00048828125,0.02099609375,1.04638671875,0.0,0.0,0.0,1.4556884765625,0.1153564453125,-25.5816650390625,1.04659745821769,0.0
1779347255.4989944,2026-05-21T16:07:35.498,-0.00048828125,0.02197265625,1.0458984375,0.0,0.0,0.0,1.4501953125,0.1153564453125,-25.5816650390625,1.046129331204417,0.0
1779347255.4989944,2026-05-21T16:07:35.498,-0.00341796875,0.0234375,1.04052734375,0.0,0.0,0.0,1.4501953125,0.1153564453125,-25.5816650390625,1.0407968831659982,0.0
1779347255.4989944,2026-05-21T16:07:35.498,-0.00341796875,0.02099609375,1.0458984375,0.0,0.0,0.0,1.4501953125,0.1153564453125,-25.5816650390625,1.046114745153741,0.0
1779347255.5577116,2026-05-21T16:07:35.557,-0.00341796875,0.02294921875,1.04248046875,0.0,0.0,0.0,1.4501953125,0.1153564453125,-25.5816650390625,1.0427386426506073,0.0
1779347255.5577116,2026-05-21T16:07:35.557,-0.0009765625,0.02587890625,1.03955078125,0.0,0.0,0.0,1.4501953125,0.1153564453125,-25.5816650390625,1.0398733087547243,0.0
1779347255.5577116,2026-05-21T16:07:35.557,-0.00390625,0.02099609375,1.04150390625,0.0,0.0,0.0,1.4501953125,0.1153564453125,-25.5816650390625,1.0417228429269612,0.0
1779347255.5587075,2026-05-21T16:07:35.558,-0.00341796875,0.02294921875,1.04296875,0.0,0.0,0.0,1.4501953125,0.1153564453125,-25.5816650390625,1.0432268030625813,0.0
1779347255.5587075,2026-05-21T16:07:35.558,-0.00244140625,0.0224609375,1.041015625,0.0,0.0,0.0,1.4501953125,0.1153564453125,-25.5816650390625,1.0412607673738588,0.0
1779347255.5587075,2026-05-21T16:07:35.558,-0.001953125,0.01953125,1.04296875,0.0,0.0,0.0,1.4501953125,0.1153564453125,-25.587158203125,1.0431534392889623,0.0
1779347255.5587075,2026-05-21T16:07:35.558,-0.00244140625,0.021484375,1.04248046875,0.0,0.0,0.0,1.4447021484375,0.1153564453125,-25.587158203125,1.0427046880871103,0.0
1779347255.5587075,2026-05-21T16:07:35.558,-0.00244140625,0.0234375,1.044921875,0.0,0.0,0.0,1.4447021484375,0.1153564453125,-25.587158203125,1.0451875438045763,0.0
1779347255.5888681,2026-05-21T16:07:35.588,-0.00244140625,0.02392578125,1.044921875,0.0,0.0,0.0,1.4447021484375,0.1153564453125,-25.5926513671875,1.045198607120396,0.0
1779347255.5888681,2026-05-21T16:07:35.588,-0.0009765625,0.0244140625,1.04052734375,0.0,0.0,0.0,1.4447021484375,0.1153564453125,-25.5926513671875,1.0408141780421234,0.0
1779347255.5888681,2026-05-21T16:07:35.588,-0.00146484375,0.02197265625,1.044921875,0.0,0.0,0.0,1.4447021484375,0.1153564453125,-25.5926513671875,1.0451538969182521,0.0
1779347255.5888681,2026-05-21T16:07:35.588,-0.001953125,0.0205078125,1.04345703125,0.0,0.0,0.0,1.4447021484375,0.1153564453125,-25.5926513671875,1.0436603667553273,0.0
1779347255.5898566,2026-05-21T16:07:35.589,-0.001953125,0.0234375,1.04150390625,0.0,0.0,0.0,1.4447021484375,0.1153564453125,-25.5926513671875,1.0417694168276992,0.0
1779347255.5898566,2026-05-21T16:07:35.589,0.0,0.0224609375,1.04248046875,0.0,0.0,0.0,1.4447021484375,0.1153564453125,-25.5926513671875,1.0427224086201459,0.0
1779347255.5898566,2026-05-21T16:07:35.589,0.00146484375,0.0224609375,1.04345703125,0.0,0.0,0.0,1.4447021484375,0.1153564453125,-25.5926513671875,1.043699772705568,0.0
1779347255.5898566,2026-05-21T16:07:35.589,-0.0009765625,0.0234375,1.0439453125,0.0,0.0,0.0,1.439208984375,0.1153564453125,-25.5926513671875,1.0442088323564827,0.0
1779347255.6189916,2026-05-21T16:07:35.618,-0.00341796875,0.0234375,1.04345703125,0.0,0.0,0.0,1.439208984375,0.1153564453125,-25.5926513671875,1.0437258140822663,0.0
1779347255.6189916,2026-05-21T16:07:35.618,-0.00146484375,0.02294921875,1.04443359375,0.0,0.0,0.0,1.439208984375,0.1153564453125,-25.5926513671875,1.0446867205827723,0.0
1779347255.6189916,2026-05-21T16:07:35.618,-0.0009765625,0.0205078125,1.04150390625,0.0,0.0,0.0,1.439208984375,0.1153564453125,-25.5926513671875,1.0417062497565521,0.0
1779347255.6189916,2026-05-21T16:07:35.618,-0.00048828125,0.02001953125,1.04443359375,0.0,0.0,0.0,1.439208984375,0.1153564453125,-25.5926513671875,1.044625555787139,0.0
1779347255.6189916,2026-05-21T16:07:35.618,0.0009765625,0.02392578125,1.0439453125,0.0,0.0,0.0,1.439208984375,0.1153564453125,-25.5926513671875,1.0442199060415684,0.0
1779347255.6189916,2026-05-21T16:07:35.618,-0.00439453125,0.02490234375,1.04150390625,0.0,0.0,0.0,1.439208984375,0.1153564453125,-25.5926513671875,1.0418108395304586,0.0
1779347255.6199765,2026-05-21T16:07:35.619,-0.0029296875,0.02392578125,1.04638671875,0.0,0.0,0.0,1.439208984375,0.1153564453125,-25.5926513671875,1.0466643164136542,0.0
1779347255.6199765,2026-05-21T16:07:35.619,-0.00341796875,0.02197265625,1.0458984375,0.0,0.0,0.0,1.439208984375,0.1153564453125,-25.5926513671875,1.0461348009209894,0.0
1779347255.6630836,2026-05-21T16:07:35.663,-0.00439453125,0.0234375,1.0380859375,0.0,0.0,0.0,1.4337158203125,0.1153564453125,-25.5926513671875,1.0383597844419876,0.0
1779347255.6630836,2026-05-21T16:07:35.663,-0.00146484375,0.0234375,1.0458984375,0.0,0.0,0.0,1.4337158203125,0.1153564453125,-25.59814453125,1.0461620351257273,0.0
1779347255.6630836,2026-05-21T16:07:35.663,-0.0009765625,0.021484375,1.0390625,0.0,0.0,0.0,1.4337158203125,0.1153564453125,-25.59814453125,1.0392850479775542,0.0
1779347255.6630836,2026-05-21T16:07:35.663,-0.0009765625,0.0185546875,1.0400390625,0.0,0.0,0.0,1.4337158203125,0.1153564453125,-25.59814453125,1.0402050190363523,0.0
1779347255.6630836,2026-05-21T16:07:35.663,-0.001953125,0.02294921875,1.04931640625,0.0,0.0,0.0,1.4337158203125,0.1153564453125,-25.6036376953125,1.0495691505393612,0.0
1779347255.6630836,2026-05-21T16:07:35.663,-0.00146484375,0.021484375,1.0439453125,0.0,0.0,0.0,1.4337158203125,0.1153564453125,-25.6036376953125,1.044167390616598,0.0
1779347255.6630836,2026-05-21T16:07:35.663,-0.001953125,0.02392578125,1.04296875,0.0,0.0,0.0,1.4337158203125,0.1153564453125,-25.609130859375,1.0432449717982115,0.0
1779347255.6630836,2026-05-21T16:07:35.663,-0.00146484375,0.0234375,1.044921875,0.0,0.0,0.0,1.4337158203125,0.1153564453125,-25.609130859375,1.0451857189164888,0.0
1779347255.6939023,2026-05-21T16:07:35.693,-0.00244140625,0.02294921875,1.0400390625,0.0,0.0,0.0,1.4337158203125,0.1153564453125,-25.609130859375,1.0402950920924272,0.0
1779347255.6939023,2026-05-21T16:07:35.693,-0.0009765625,0.0234375,1.04150390625,0.0,0.0,0.0,1.4337158203125,0.1153564453125,-25.609130859375,1.0417680436712269,0.0
1779347255.6939023,2026-05-21T16:07:35.693,-0.00244140625,0.0234375,1.04638671875,0.0,0.0,0.0,1.42822265625,0.1153564453125,-25.6146240234375,1.0466520157373793,0.0
1779347255.6939023,2026-05-21T16:07:35.693,-0.00146484375,0.02197265625,1.0419921875,0.0,0.0,0.0,1.42822265625,0.1153564453125,-25.6146240234375,1.042224861630602,0.0
1779347255.6939023,2026-05-21T16:07:35.693,-0.00048828125,0.02197265625,1.0419921875,0.0,0.0,0.0,1.42822265625,0.1153564453125,-25.6146240234375,1.042223946593195,0.0
1779347255.6939023,2026-05-21T16:07:35.693,-0.001953125,0.0224609375,1.044921875,0.0,0.0,0.0,1.42822265625,0.1153564453125,-25.6146240234375,1.045165074648096,0.0
1779347255.6939023,2026-05-21T16:07:35.693,-0.00244140625,0.02197265625,1.04296875,0.0,0.0,0.0,1.42822265625,0.10986328125,-25.6146240234375,1.043203034679118,0.0
1779347255.6939023,2026-05-21T16:07:35.693,-0.00244140625,0.02197265625,1.04443359375,0.0,0.0,0.0,1.42822265625,0.10986328125,-25.6146240234375,1.0446675499127454,0.0
1779347255.738397,2026-05-21T16:07:35.738,0.00048828125,0.02197265625,1.0439453125,0.0,0.0,0.0,1.42822265625,0.10986328125,-25.609130859375,1.0441766380895439,0.0
1779347255.738397,2026-05-21T16:07:35.738,-0.00048828125,0.02197265625,1.04345703125,0.0,0.0,0.0,1.42822265625,0.10986328125,-25.609130859375,1.043688465063365,0.0
1779347255.738397,2026-05-21T16:07:35.738,-0.00146484375,0.02197265625,1.04638671875,0.0,0.0,0.0,1.42822265625,0.10986328125,-25.609130859375,1.046618415931176,0.0
1779347255.738397,2026-05-21T16:07:35.738,-0.00048828125,0.02294921875,1.04443359375,0.0,0.0,0.0,1.4227294921875,0.10986328125,-25.6146240234375,1.0446858077017005,0.0
1779347255.738397,2026-05-21T16:07:35.738,-0.00244140625,0.021484375,1.0419921875,0.0,0.0,0.0,1.4227294921875,0.10986328125,-25.6146240234375,1.0422165118844804,0.0
1779347255.739378,2026-05-21T16:07:35.739,0.0,0.0234375,1.04541015625,0.0,0.0,0.0,1.4227294921875,0.10986328125,-25.6146240234375,1.0456728509418705,0.0
1779347255.739378,2026-05-21T16:07:35.739,-0.001953125,0.02294921875,1.04150390625,0.0,0.0,0.0,1.4227294921875,0.10986328125,-25.6146240234375,1.041758545956072,0.0
1779347255.739378,2026-05-21T16:07:35.739,0.0,0.0205078125,1.04541015625,0.0,0.0,0.0,1.4227294921875,0.10986328125,-25.6146240234375,1.045611287794936,0.0
1779347255.7849011,2026-05-21T16:07:35.784,-0.00146484375,0.0234375,1.0478515625,0.0,0.0,0.0,1.4227294921875,0.10986328125,-25.6201171875,1.0481146689208931,0.0
1779347255.7849011,2026-05-21T16:07:35.784,-0.00390625,0.0224609375,1.04150390625,0.0,0.0,0.0,1.4227294921875,0.10986328125,-25.6201171875,1.041753396556234,0.0
1779347255.7849011,2026-05-21T16:07:35.784,-0.0009765625,0.021484375,1.04736328125,0.0,0.0,0.0,1.4227294921875,0.10986328125,-25.6201171875,1.047584065817261,0.0
1779347255.7849011,2026-05-21T16:07:35.784,-0.0029296875,0.021484375,1.04638671875,0.0,0.0,0.0,1.4227294921875,0.10986328125,-25.6256103515625,1.0466113541398163,0.0
1779347255.7849011,2026-05-21T16:07:35.784,-0.00244140625,0.02294921875,1.04052734375,0.0,0.0,0.0,1.4227294921875,0.10986328125,-25.6256103515625,1.0407832532266954,0.0
1779347255.7849011,2026-05-21T16:07:35.784,-0.0029296875,0.02294921875,1.0439453125,0.0,0.0,0.0,1.417236328125,0.10986328125,-25.6256103515625,1.044201640106357,0.0
1779347255.7849011,2026-05-21T16:07:35.784,-0.00146484375,0.02197265625,1.0439453125,0.0,0.0,0.0,1.417236328125,0.10986328125,-25.6256103515625,1.0441775514157614,0.0
1779347255.7864838,2026-05-21T16:07:35.786,-0.00048828125,0.02197265625,1.0380859375,0.0,0.0,0.0,1.417236328125,0.10986328125,-25.631103515625,1.038318568492596,0.0
1779347255.813023,2026-05-21T16:07:35.813,-0.0029296875,0.0244140625,1.04638671875,0.0,0.0,0.0,1.417236328125,0.10986328125,-25.631103515625,1.0466755919065818,0.0
1779347255.813023,2026-05-21T16:07:35.813,0.00048828125,0.02197265625,1.04296875,0.0,0.0,0.0,1.417236328125,0.10986328125,-25.631103515625,1.043200292138486,0.0
1779347255.813023,2026-05-21T16:07:35.813,-0.0029296875,0.02294921875,1.04345703125,0.0,0.0,0.0,1.417236328125,0.10986328125,-25.6365966796875,1.0437134787742977,0.0
1779347255.813023,2026-05-21T16:07:35.813,-0.0009765625,0.02294921875,1.0419921875,0.0,0.0,0.0,1.417236328125,0.10986328125,-25.6365966796875,1.0422453353825034,0.0
1779347255.813023,2026-05-21T16:07:35.813,-0.001953125,0.0224609375,1.04248046875,0.0,0.0,0.0,1.417236328125,0.10986328125,-25.6365966796875,1.0427242378193116,0.0
1779347255.813023,2026-05-21T16:07:35.813,-0.00244140625,0.02099609375,1.0439453125,0.0,0.0,0.0,1.417236328125,0.10986328125,-25.6365966796875,1.044159284739622,0.0
1779347255.813023,2026-05-21T16:07:35.813,-0.00341796875,0.021484375,1.04443359375,0.0,0.0,0.0,1.417236328125,0.10986328125,-25.6365966796875,1.0446601325948341,0.0
1779347255.8140247,2026-05-21T16:07:35.814,0.0,0.0224609375,1.04541015625,0.0,0.0,0.0,1.4117431640625,0.10986328125,-25.6365966796875,1.0456514182575511,0.0
1779347255.8581283,2026-05-21T16:07:35.858,-0.0009765625,0.0224609375,1.04150390625,0.0,0.0,0.0,1.4117431640625,0.10986328125,-25.6365966796875,1.0417465306501885,0.0
1779347255.8581283,2026-05-21T16:07:35.858,0.0,0.02099609375,1.04638671875,0.0,0.0,0.0,1.4117431640625,0.10986328125,-25.6365966796875,1.0465973443159267,0.0
1779347255.8581283,2026-05-21T16:07:35.858,-0.00244140625,0.02099609375,1.04541015625,0.0,0.0,0.0,1.4117431640625,0.10986328125,-25.6365966796875,1.0456238287299529,0.0
1779347255.8581283,2026-05-21T16:07:35.858,-0.00146484375,0.02294921875,1.04052734375,0.0,0.0,0.0,1.4117431640625,0.10986328125,-25.6365966796875,1.0407814206162012,0.0
1779347255.859112,2026-05-21T16:07:35.859,0.0,0.02197265625,1.0478515625,0.0,0.0,0.0,1.4117431640625,0.10986328125,-25.6365966796875,1.0480819121883422,0.0
1779347255.859112,2026-05-21T16:07:35.859,-0.00244140625,0.02490234375,1.0400390625,0.0,0.0,0.0,1.4117431640625,0.10986328125,-25.6365966796875,1.0403400111091563,0.0
1779347255.859112,2026-05-21T16:07:35.859,-0.0029296875,0.0224609375,1.04345703125,0.0,0.0,0.0,1.4117431640625,0.10986328125,-25.6365966796875,1.043702856586725,0.0
1779347255.859112,2026-05-21T16:07:35.859,-0.00146484375,0.02392578125,1.046875,0.0,0.0,0.0,1.4117431640625,0.10986328125,-25.6365966796875,1.0471493944994834,0.0
1779347255.903887,2026-05-21T16:07:35.903,-0.001953125,0.0205078125,1.04150390625,0.0,0.0,0.0,1.4117431640625,0.10986328125,-25.6365966796875,1.04170762299448,0.0
1779347255.903887,2026-05-21T16:07:35.903,-0.001953125,0.0234375,1.04931640625,0.0,0.0,0.0,1.4117431640625,0.10986328125,-25.6365966796875,1.0495799405137898,0.0
1779347255.903887,2026-05-21T16:07:35.903,-0.0029296875,0.0224609375,1.04296875,0.0,0.0,0.0,1.40625,0.10986328125,-25.6365966796875,1.0432146903963675,0.0
1779347255.903887,2026-05-21T16:07:35.903,-0.0029296875,0.02294921875,1.04052734375,0.0,0.0,0.0,1.40625,0.10986328125,-25.6365966796875,1.0407845131445383,0.0
1779347255.903887,2026-05-21T16:07:35.903,-0.001953125,0.0234375,1.044921875,0.0,0.0,0.0,1.40625,0.10986328125,-25.6365966796875,1.0451865173054191,0.0
1779347255.903887,2026-05-21T16:07:35.903,-0.0029296875,0.0205078125,1.04345703125,0.0,0.0,0.0,1.40625,0.10986328125,-25.6365966796875,1.0436626511988663,0.0
1779347255.903887,2026-05-21T16:07:35.903,-0.00341796875,0.0205078125,1.03857421875,0.0,0.0,0.0,1.40625,0.10986328125,-25.6365966796875,1.038782297084468,0.0
1779347255.903887,2026-05-21T16:07:35.903,0.0,0.0234375,1.041015625,0.0,0.0,0.0,1.40625,0.10986328125,-25.64208984375,1.0412794283478333,0.0
1779347255.9331205,2026-05-21T16:07:35.933,-0.00390625,0.021484375,1.041015625,0.0,0.0,0.0,1.40625,0.10986328125,-25.64208984375,1.041244624789172,0.0
1779347255.9331205,2026-05-21T16:07:35.933,0.0,0.0224609375,1.0400390625,0.0,0.0,0.0,1.40625,0.10986328125,-25.64208984375,1.040281570171873,0.0
1779347255.9331205,2026-05-21T16:07:35.933,0.00048828125,0.02197265625,1.0458984375,0.0,0.0,0.0,1.40625,0.10986328125,-25.64208984375,1.046129331204417,0.0
1779347255.9331205,2026-05-21T16:07:35.933,-0.00146484375,0.02294921875,1.04296875,0.0,0.0,0.0,1.40625,0.10986328125,-25.64208984375,1.0432222322616642,0.0
1779347255.9331205,2026-05-21T16:07:35.933,-0.0009765625,0.0224609375,1.044921875,0.0,0.0,0.0,1.4007568359375,0.10986328125,-25.6475830078125,1.0451637059529053,0.0
1779347255.9331205,2026-05-21T16:07:35.933,-0.00146484375,0.0224609375,1.046875,0.0,0.0,0.0,1.4007568359375,0.10986328125,-25.6475830078125,1.0471169491062546,0.0
1779347255.9331205,2026-05-21T16:07:35.933,-0.00146484375,0.0244140625,1.041015625,0.0,0.0,0.0,1.4007568359375,0.10986328125,-25.6475830078125,1.041302897196155,0.0
1779347255.9331205,2026-05-21T16:07:35.933,-0.00048828125,0.0234375,1.04345703125,0.0,0.0,0.0,1.4007568359375,0.10986328125,-25.6475830078125,1.0437203317411674,0.0
1779347255.978201,2026-05-21T16:07:35.978,-0.00244140625,0.02294921875,1.04638671875,0.0,0.0,0.0,1.4007568359375,0.10986328125,-25.653076171875,1.0466411955785537,0.0
1779347255.978201,2026-05-21T16:07:35.978,0.0,0.0244140625,1.037109375,0.0,0.0,0.0,1.4007568359375,0.10986328125,-25.653076171875,1.0373966946933293,0.0
1779347255.978201,2026-05-21T16:07:35.978,-0.00146484375,0.02294921875,1.046875,0.0,0.0,0.0,1.4007568359375,0.10986328125,-25.6585693359375,1.0471275366608632,0.0
1779347255.978201,2026-05-21T16:07:35.978,-0.00244140625,0.0234375,1.04443359375,0.0,0.0,0.0,1.4007568359375,0.10986328125,-25.6585693359375,1.0446993867253238,0.0
1779347255.978201,2026-05-21T16:07:35.978,-0.001953125,0.0224609375,1.0400390625,0.0,0.0,0.0,1.4007568359375,0.10986328125,-25.6585693359375,1.0402834036629265,0.0
1779347255.978201,2026-05-21T16:07:35.978,-0.00341796875,0.021484375,1.04345703125,0.0,0.0,0.0,1.4007568359375,0.10986328125,-25.6640625,1.0436837820645581,0.0
1779347255.978201,2026-05-21T16:07:35.978,-0.00146484375,0.02197265625,1.041015625,0.0,0.0,0.0,1.4007568359375,0.10986328125,-25.6640625,1.0412485173502208,0.0
1779347255.978201,2026-05-21T16:07:35.978,-0.00146484375,0.02294921875,1.04052734375,0.0,0.0,0.0,1.4007568359375,0.10986328125,-25.6695556640625,1.0407814206162012,0.0
1779347256.0232,2026-05-21T16:07:36.023,-0.001953125,0.02294921875,1.04931640625,0.0,0.0,0.0,1.395263671875,0.10986328125,-25.6695556640625,1.0495691505393612,0.0
1779347256.0232,2026-05-21T16:07:36.023,-0.0009765625,0.0224609375,1.03955078125,0.0,0.0,0.0,1.395263671875,0.10986328125,-25.6695556640625,1.0397938613904107,0.0
1779347256.0232,2026-05-21T16:07:36.023,-0.0048828125,0.02099609375,1.0419921875,0.0,0.0,0.0,1.395263671875,0.10986328125,-25.6695556640625,1.0422151393170722,0.0
1779347256.0232,2026-05-21T16:07:36.023,0.0,0.0234375,1.04248046875,0.0,0.0,0.0,1.395263671875,0.10986328125,-25.6695556640625,1.0427439015076856,0.0
1779347256.0232,2026-05-21T16:07:36.023,-0.0009765625,0.02197265625,1.03857421875,0.0,0.0,0.0,1.395263671875,0.10986328125,-25.675048828125,1.0388070846645059,0.0
1779347256.0232,2026-05-21T16:07:36.023,-0.001953125,0.0234375,1.04248046875,0.0,0.0,0.0,1.395263671875,0.10986328125,-25.675048828125,1.042745730669148,0.0
1779347256.0232,2026-05-21T16:07:36.023,-0.0029296875,0.0244140625,1.041015625,0.0,0.0,0.0,1.395263671875,0.10986328125,-25.675048828125,1.0413059881757822,0.0
1779347256.024203,2026-05-21T16:07:36.024,-0.00244140625,0.02294921875,1.04248046875,0.0,0.0,0.0,1.395263671875,0.10986328125,-25.675048828125,1.0427358988885598,0.0
1779347256.0976872,2026-05-21T16:07:36.097,-0.00244140625,0.0224609375,1.044921875,0.0,0.0,0.0,1.395263671875,0.10986328125,-25.675048828125,1.0451661011683129,0.0
1779347256.0976872,2026-05-21T16:07:36.097,-0.0029296875,0.025390625,1.04248046875,0.0,0.0,0.0,1.395263671875,0.10986328125,-25.675048828125,1.0427937450099891,0.0
1779347256.0976872,2026-05-21T16:07:36.097,-0.00048828125,0.0224609375,1.04345703125,0.0,0.0,0.0,1.395263671875,0.10986328125,-25.675048828125,1.043698858961253,0.0
1779347256.0976872,2026-05-21T16:07:36.097,-0.0009765625,0.02392578125,1.04248046875,0.0,0.0,0.0,1.395263671875,0.10986328125,-25.675048828125,1.0427554480356163,0.0
1779347256.0976872,2026-05-21T16:07:36.097,-0.00146484375,0.021484375,1.04345703125,0.0,0.0,0.0,1.395263671875,0.10986328125,-25.675048828125,1.0436792132649841,0.0
1779347256.0976872,2026-05-21T16:07:36.097,-0.00390625,0.02490234375,1.0419921875,0.0,0.0,0.0,1.3897705078125,0.10986328125,-25.6805419921875,1.0422970326755905,0.0
1779347256.0976872,2026-05-21T16:07:36.097,-0.001953125,0.021484375,1.04248046875,0.0,0.0,0.0,1.3897705078125,0.10986328125,-25.6805419921875,1.0427036591436831,0.0
1779347256.0976872,2026-05-21T16:07:36.097,-0.00390625,0.02197265625,1.04443359375,0.0,0.0,0.0,1.3897705078125,0.10986328125,-25.6805419921875,1.0446720002782133,0.0
1779347256.0986655,2026-05-21T16:07:36.098,-0.00048828125,0.0224609375,1.0390625,0.0,0.0,0.0,1.3897705078125,0.10986328125,-25.6805419921875,1.039305350240346,0.0
1779347256.0986655,2026-05-21T16:07:36.098,0.0,0.021484375,1.04443359375,0.0,0.0,0.0,1.3897705078125,0.10986328125,-25.6805419921875,1.0446545410434402,0.0
1779347256.0986655,2026-05-21T16:07:36.098,-0.0029296875,0.02099609375,1.04248046875,0.0,0.0,0.0,1.3897705078125,0.10986328125,-25.6805419921875,1.0426959991995874,0.0
1779347256.0986655,2026-05-21T16:07:36.098,-0.00146484375,0.02099609375,1.03857421875,0.0,0.0,0.0,1.3897705078125,0.10986328125,-25.6805419921875,1.0387874612124193,0.0
1779347256.0986655,2026-05-21T16:07:36.098,-0.00146484375,0.021484375,1.046875,0.0,0.0,0.0,1.3897705078125,0.10986328125,-25.6805419921875,1.047096456760958,0.0
1779347256.0986655,2026-05-21T16:07:36.098,-0.00146484375,0.02099609375,1.04052734375,0.0,0.0,0.0,1.3897705078125,0.10986328125,-25.6805419921875,1.0407401860269456,0.0
1779347256.0986655,2026-05-21T16:07:36.098,-0.00048828125,0.0234375,1.0400390625,0.0,0.0,0.0,1.3897705078125,0.10986328125,-25.6805419921875,1.0403032280785771,0.0
1779347256.0986655,2026-05-21T16:07:36.098,-0.0009765625,0.02392578125,1.04248046875,0.0,0.0,0.0,1.3897705078125,0.10986328125,-25.6805419921875,1.0427554480356163,0.0
1779347256.1590288,2026-05-21T16:07:36.159,-0.0009765625,0.021484375,1.04296875,0.0,0.0,0.0,1.3897705078125,0.10986328125,-25.6805419921875,1.0431904646420134,0.0
1779347256.1590288,2026-05-21T16:07:36.159,-0.0009765625,0.0224609375,1.0419921875,0.0,0.0,0.0,1.38427734375,0.10986328125,-25.68603515625,1.0422346982319914,0.0
1779347256.1600482,2026-05-21T16:07:36.160,-0.00244140625,0.0234375,1.0439453125,0.0,0.0,0.0,1.38427734375,0.10986328125,-25.68603515625,1.0442112297621828,0.0
1779347256.1600482,2026-05-21T16:07:36.160,-0.00244140625,0.021484375,1.0439453125,0.0,0.0,0.0,1.38427734375,0.10986328125,-25.68603515625,1.0441692172844117,0.0
1779347256.1600482,2026-05-21T16:07:36.160,-0.001953125,0.02392578125,1.04443359375,0.0,0.0,0.0,1.38427734375,0.10986328125,-25.68603515625,1.044709428242719,0.0
1779347256.1600482,2026-05-21T16:07:36.160,-0.00244140625,0.0224609375,1.0419921875,0.0,0.0,0.0,1.38427734375,0.10986328125,-25.6915283203125,1.0422371001786934,0.0
1779347256.1600482,2026-05-21T16:07:36.160,-0.00048828125,0.021484375,1.04248046875,0.0,0.0,0.0,1.38427734375,0.10986328125,-25.6915283203125,1.0427019442357146,0.0
1779347256.1600482,2026-05-21T16:07:36.160,-0.0009765625,0.02294921875,1.0419921875,0.0,0.0,0.0,1.38427734375,0.10986328125,-25.6915283203125,1.0422453353825034,0.0
1779347256.1889408,2026-05-21T16:07:36.188,0.00048828125,0.021484375,1.0400390625,0.0,0.0,0.0,1.38427734375,0.10986328125,-25.697021484375,1.0402610577704035,0.0
1779347256.1889408,2026-05-21T16:07:36.188,-0.00146484375,0.0205078125,1.04150390625,0.0,0.0,0.0,1.38427734375,0.10986328125,-25.697021484375,1.041706821939242,0.0
1779347256.1889408,2026-05-21T16:07:36.188,-0.0029296875,0.02294921875,1.0419921875,0.0,0.0,0.0,1.38427734375,0.10986328125,-25.7025146484375,1.0422489954521992,0.0
1779347256.1889408,2026-05-21T16:07:36.188,-0.00146484375,0.02099609375,1.04541015625,0.0,0.0,0.0,1.38427734375,0.10986328125,-25.7025146484375,1.0456220046032985,0.0
1779347256.1889408,2026-05-21T16:07:36.188,-0.00146484375,0.02392578125,1.04052734375,0.0,0.0,0.0,1.38427734375,0.10986328125,-25.7025146484375,1.040803411729163,0.0
1779347256.1899216,2026-05-21T16:07:36.189,-0.0009765625,0.02197265625,1.0458984375,0.0,0.0,0.0,1.38427734375,0.10986328125,-25.7025146484375,1.0461296730625407,0.0
1779347256.1899216,2026-05-21T16:07:36.189,-0.00390625,0.02392578125,1.04541015625,0.0,0.0,0.0,1.3787841796875,0.10986328125,-25.7025146484375,1.0456912051787253,0.0
1779347256.1899216,2026-05-21T16:07:36.189,0.0,0.02490234375,1.04052734375,0.0,0.0,0.0,1.3787841796875,0.10986328125,-25.7025146484375,1.0408252878440616,0.0
1779347256.218795,2026-05-21T16:07:36.218,-0.00146484375,0.02197265625,1.0478515625,0.0,0.0,0.0,1.3787841796875,0.10986328125,-25.7080078125,1.0480829358517312,0.0
1779347256.218795,2026-05-21T16:07:36.218,-0.00390625,0.02490234375,1.04150390625,0.0,0.0,0.0,1.3787841796875,0.10986328125,-25.7080078125,1.041808894302268,0.0
1779347256.218795,2026-05-21T16:07:36.218,-0.0029296875,0.02197265625,1.04443359375,0.0,0.0,0.0,1.3787841796875,0.10986328125,-25.7080078125,1.0446688051459507,0.0
1779347256.218795,2026-05-21T16:07:36.218,-0.00244140625,0.02197265625,1.0419921875,0.0,0.0,0.0,1.3787841796875,0.10986328125,-25.7080078125,1.0422266917030063,0.0
1779347256.218795,2026-05-21T16:07:36.218,-0.00244140625,0.02392578125,1.0390625,0.0,0.0,0.0,1.3787841796875,0.10986328125,-25.7080078125,1.0393407922232007,0.0
1779347256.218795,2026-05-21T16:07:36.218,-0.00244140625,0.0244140625,1.044921875,0.0,0.0,0.0,1.3787841796875,0.10986328125,-25.7080078125,1.0452098984250708,0.0
1779347256.2197773,2026-05-21T16:07:36.219,-0.001953125,0.0234375,1.04833984375,0.0,0.0,0.0,1.3787841796875,0.10986328125,-25.7080078125,1.048603623442762,0.0
1779347256.2197773,2026-05-21T16:07:36.219,0.0,0.0224609375,1.03955078125,0.0,0.0,0.0,1.3787841796875,0.10986328125,-25.7080078125,1.0397934028021452,0.0
1779347256.2777143,2026-05-21T16:07:36.277,-0.0009765625,0.02099609375,1.041015625,0.0,0.0,0.0,1.3787841796875,0.10986328125,-25.7080078125,1.0412277950195221,0.0
1779347256.2787251,2026-05-21T16:07:36.278,-0.00244140625,0.021484375,1.04443359375,0.0,0.0,0.0,1.3787841796875,0.10986328125,-25.7080078125,1.0446573938795236,0.0
1779347256.2787251,2026-05-21T16:07:36.278,-0.00048828125,0.02294921875,1.0380859375,0.0,0.0,0.0,1.3787841796875,0.10986328125,-25.7080078125,1.0383396933061302,0.0
1779347256.2787251,2026-05-21T16:07:36.278,-0.00390625,0.0205078125,1.0498046875,0.0,0.0,0.0,1.3787841796875,0.10986328125,-25.7080078125,1.05001224329032,0.0
1779347256.2787251,2026-05-21T16:07:36.278,-0.0009765625,0.021484375,1.044921875,0.0,0.0,0.0,1.373291015625,0.10986328125,-25.7135009765625,1.0451431753099538,0.0
1779347256.2787251,2026-05-21T16:07:36.278,-0.00048828125,0.0224609375,1.044921875,0.0,0.0,0.0,1.373291015625,0.10986328125,-25.7135009765625,1.0451633637788276,0.0
1779347256.2787251,2026-05-21T16:07:36.278,-0.001953125,0.02294921875,1.04638671875,0.0,0.0,0.0,1.373291015625,0.10986328125,-25.7135009765625,1.046640170505075,0.0
1779347256.2787251,2026-05-21T16:07:36.278,0.00048828125,0.0224609375,1.0439453125,0.0,0.0,0.0,1.373291015625,0.10986328125,-25.7135009765625,1.0441870271281293,0.0
1779347256.3085396,2026-05-21T16:07:36.308,-0.00244140625,0.0234375,1.04638671875,0.0,0.0,0.0,1.373291015625,0.10986328125,-25.7135009765625,1.0466520157373793,0.0
1779347256.3085396,2026-05-21T16:07:36.308,-0.00244140625,0.021484375,1.0439453125,0.0,0.0,0.0,1.373291015625,0.10986328125,-25.718994140625,1.0441692172844117,0.0
1779347256.3085396,2026-05-21T16:07:36.308,-0.00341796875,0.02197265625,1.041015625,0.0,0.0,0.0,1.373291015625,0.10986328125,-25.718994140625,1.0412530968151774,0.0
1779347256.3085396,2026-05-21T16:07:36.308,-0.00048828125,0.02294921875,1.04150390625,0.0,0.0,0.0,1.373291015625,0.10986328125,-25.718994140625,1.0417568294922877,0.0
1779347256.3085396,2026-05-21T16:07:36.308,-0.0009765625,0.0224609375,1.04296875,0.0,0.0,0.0,1.373291015625,0.10986328125,-25.718994140625,1.043211033714779,0.0
1779347256.3085396,2026-05-21T16:07:36.308,-0.00048828125,0.021484375,1.04296875,0.0,0.0,0.0,1.373291015625,0.10986328125,-25.7244873046875,1.0431901218206978,0.0
1779347256.3085396,2026-05-21T16:07:36.308,-0.00146484375,0.0224609375,1.04296875,0.0,0.0,0.0,1.373291015625,0.10986328125,-25.7244873046875,1.043211605072122,0.0
1779347256.3085396,2026-05-21T16:07:36.308,-0.00146484375,0.02001953125,1.0439453125,0.0,0.0,0.0,1.373291015625,0.10986328125,-25.7244873046875,1.0441382776669976,0.0
1779347256.3383343,2026-05-21T16:07:36.338,-0.0009765625,0.02099609375,1.0458984375,0.0,0.0,0.0,1.373291015625,0.10986328125,-25.72998046875,1.0461096171969821,0.0
1779347256.3383343,2026-05-21T16:07:36.338,-0.001953125,0.0224609375,1.04833984375,0.0,0.0,0.0,1.373291015625,0.10986328125,-25.72998046875,1.0485822506624929,0.0
1779347256.3383343,2026-05-21T16:07:36.338,-0.00390625,0.021484375,1.041015625,0.0,0.0,0.0,1.3677978515625,0.10986328125,-25.72998046875,1.041244624789172,0.0
1779347256.3383343,2026-05-21T16:07:36.338,-0.00341796875,0.02490234375,1.04443359375,0.0,0.0,0.0,1.3677978515625,0.10986328125,-25.7354736328125,1.0447360149761082,0.0
1779347256.3383343,2026-05-21T16:07:36.338,-0.001953125,0.0224609375,1.04638671875,0.0,0.0,0.0,1.3677978515625,0.10986328125,-25.7354736328125,1.0466295780203405,0.0
1779347256.3383343,2026-05-21T16:07:36.338,-0.00244140625,0.02294921875,1.04541015625,0.0,0.0,0.0,1.3677978515625,0.10986328125,-25.7354736328125,1.0456648707384035,0.0
1779347256.3383343,2026-05-21T16:07:36.338,-0.0029296875,0.02294921875,1.03955078125,0.0,0.0,0.0,1.3677978515625,0.10986328125,-25.740966796875,1.039808192171791,0.0
1779347256.3383343,2026-05-21T16:07:36.338,0.0,0.02294921875,1.04931640625,0.0,0.0,0.0,1.3677978515625,0.10986328125,-25.740966796875,1.0495673332695956,0.0
1779347256.398813,2026-05-21T16:07:36.398,-0.0009765625,0.02392578125,1.04248046875,0.0,0.0,0.0,1.3677978515625,0.10986328125,-25.740966796875,1.0427554480356163,0.0
1779347256.3998084,2026-05-21T16:07:36.399,-0.0009765625,0.02001953125,1.0439453125,0.0,0.0,0.0,1.3677978515625,0.10986328125,-25.7464599609375,1.0441377068167343,0.0
1779347256.3998084,2026-05-21T16:07:36.399,-0.00244140625,0.02294921875,1.0400390625,0.0,0.0,0.0,1.3677978515625,0.10986328125,-25.7464599609375,1.0402950920924272,0.0
1779347256.3998084,2026-05-21T16:07:36.399,0.0,0.02392578125,1.04052734375,0.0,0.0,0.0,1.3677978515625,0.10986328125,-25.751953125,1.0408023809061226,0.0
1779347256.3998084,2026-05-21T16:07:36.399,-0.0048828125,0.02197265625,1.03955078125,0.0,0.0,0.0,1.3677978515625,0.10986328125,-25.751953125,1.0397944346254582,0.0
1779347256.3998084,2026-05-21T16:07:36.399,-0.0009765625,0.02392578125,1.04443359375,0.0,0.0,0.0,1.3677978515625,0.10986328125,-25.751953125,1.0447080589505755,0.0
1779347256.3998084,2026-05-21T16:07:36.399,-0.00244140625,0.02197265625,1.04443359375,0.0,0.0,0.0,1.3677978515625,0.10986328125,-25.7574462890625,1.0446675499127454,0.0
1779347256.3998084,2026-05-21T16:07:36.399,-0.00146484375,0.02197265625,1.04052734375,0.0,0.0,0.0,1.3623046875,0.10986328125,-25.7574462890625,1.0407603453635823,0.0
1779347256.4290168,2026-05-21T16:07:36.429,-0.00390625,0.02099609375,1.0458984375,0.0,0.0,0.0,1.3623046875,0.10986328125,-25.7574462890625,1.0461164544670745,0.0
1779347256.4290168,2026-05-21T16:07:36.429,-0.00244140625,0.0244140625,1.04443359375,0.0,0.0,0.0,1.3623046875,0.10986328125,-25.762939453125,1.0447217517912468,0.0
1779347256.4290168,2026-05-21T16:07:36.429,-0.0029296875,0.021484375,1.04345703125,0.0,0.0,0.0,1.3623046875,0.10986328125,-25.762939453125,1.0436822972068904,0.0
1779347256.4290168,2026-05-21T16:07:36.429,-0.0048828125,0.02197265625,1.048828125,0.0,0.0,0.0,1.3623046875,0.10986328125,-25.762939453125,1.0490696236530759,0.0
1779347256.4290168,2026-05-21T16:07:36.429,-0.00244140625,0.0224609375,1.04248046875,0.0,0.0,0.0,1.3623046875,0.10986328125,-25.7684326171875,1.042725266742432,0.0
1779347256.4299972,2026-05-21T16:07:36.429,-0.00146484375,0.02001953125,1.04150390625,0.0,0.0,0.0,1.3623046875,0.10986328125,-25.7684326171875,1.041697323665896,0.0
1779347256.4299972,2026-05-21T16:07:36.429,-0.0009765625,0.021484375,1.04345703125,0.0,0.0,0.0,1.3623046875,0.10986328125,-25.7684326171875,1.043678642163631,0.0
1779347256.4299972,2026-05-21T16:07:36.429,-0.00244140625,0.0234375,1.0439453125,0.0,0.0,0.0,1.3623046875,0.10986328125,-25.77392578125,1.0442112297621828,0.0
1779347256.4586127,2026-05-21T16:07:36.458,-0.001953125,0.0234375,1.04443359375,0.0,0.0,0.0,1.3623046875,0.10986328125,-25.77392578125,1.0446983597465134,0.0
1779347256.4586127,2026-05-21T16:07:36.458,-0.001953125,0.02294921875,1.04296875,0.0,0.0,0.0,1.3623046875,0.10986328125,-25.7794189453125,1.0432230321532705,0.0
1779347256.4586127,2026-05-21T16:07:36.458,-0.00048828125,0.021484375,1.04345703125,0.0,0.0,0.0,1.3623046875,0.10986328125,-25.7794189453125,1.0436782995026692,0.0
1779347256.4586127,2026-05-21T16:07:36.458,-0.0009765625,0.021484375,1.04736328125,0.0,0.0,0.0,1.3623046875,0.10986328125,-25.7794189453125,1.047584065817261,0.0
1779347256.4586127,2026-05-21T16:07:36.458,-0.00146484375,0.02001953125,1.041015625,0.0,0.0,0.0,1.3623046875,0.10986328125,-25.784912109375,1.0412091331201538,0.0
1779347256.4586127,2026-05-21T16:07:36.458,-0.0029296875,0.0234375,1.04248046875,0.0,0.0,0.0,1.3623046875,0.10986328125,-25.784912109375,1.042748017116464,0.0
1779347256.4586127,2026-05-21T16:07:36.458,-0.00146484375,0.02197265625,1.0419921875,0.0,0.0,0.0,1.3568115234375,0.10986328125,-25.784912109375,1.042224861630602,0.0
1779347256.4586127,2026-05-21T16:07:36.458,-0.0009765625,0.02099609375,1.04296875,0.0,0.0,0.0,1.3568115234375,0.10986328125,-25.7904052734375,1.0431805227781228,0.0
1779347256.517882,2026-05-21T16:07:36.517,-0.00048828125,0.0224609375,1.0439453125,0.0,0.0,0.0,1.3568115234375,0.10986328125,-25.7904052734375,1.0441870271281293,0.0
1779347256.517882,2026-05-21T16:07:36.517,-0.00244140625,0.02294921875,1.04736328125,0.0,0.0,0.0,1.3568115234375,0.10986328125,-25.7904052734375,1.047617520861731,0.0
1779347256.517882,2026-05-21T16:07:36.517,-0.0009765625,0.0205078125,1.04150390625,0.0,0.0,0.0,1.3568115234375,0.10986328125,-25.7958984375,1.0417062497565521,0.0
1779347256.5188773,2026-05-21T16:07:36.518,-0.001953125,0.0224609375,1.044921875,0.0,0.0,0.0,1.3568115234375,0.10986328125,-25.7958984375,1.045165074648096,0.0
1779347256.5188773,2026-05-21T16:07:36.518,-0.00048828125,0.025390625,1.04736328125,0.0,0.0,0.0,1.3568115234375,0.10986328125,-25.7958984375,1.0476711149818134,0.0
1779347256.5188773,2026-05-21T16:07:36.518,-0.001953125,0.0205078125,1.04248046875,0.0,0.0,0.0,1.3568115234375,0.10986328125,-25.8013916015625,1.0426839946963895,0.0
1779347256.5188773,2026-05-21T16:07:36.518,-0.0029296875,0.0234375,1.04296875,0.0,0.0,0.0,1.3568115234375,0.10986328125,-25.8013916015625,1.0432361731418538,0.0
1779347256.5188773,2026-05-21T16:07:36.518,-0.00439453125,0.0205078125,1.04638671875,0.0,0.0,0.0,1.3568115234375,0.10986328125,-25.8013916015625,1.0465968887087491,0.0
1779347256.5488067,2026-05-21T16:07:36.548,-0.001953125,0.0234375,1.04248046875,0.0,0.0,0.0,1.3568115234375,0.10986328125,-25.806884765625,1.042745730669148,0.0
1779347256.5488067,2026-05-21T16:07:36.548,-0.001953125,0.02197265625,1.04345703125,0.0,0.0,0.0,1.3568115234375,0.10986328125,-25.806884765625,1.0436901783503616,0.0
1779347256.5488067,2026-05-21T16:07:36.548,-0.00341796875,0.021484375,1.04736328125,0.0,0.0,0.0,1.3568115234375,0.10986328125,-25.806884765625,1.047589186556583,0.0
1779347256.5488067,2026-05-21T16:07:36.548,-0.00048828125,0.02197265625,1.04443359375,0.0,0.0,0.0,1.3568115234375,0.10986328125,-25.8123779296875,1.0446648112168802,0.0
1779347256.5488067,2026-05-21T16:07:36.548,0.0,0.0224609375,1.046875,0.0,0.0,0.0,1.351318359375,0.10986328125,-25.8123779296875,1.0471159244985146,0.0
1779347256.5498042,2026-05-21T16:07:36.549,-0.00048828125,0.02587890625,1.05126953125,0.0,0.0,0.0,1.351318359375,0.10986328125,-25.8123779296875,1.051588124477388,0.0
1779347256.5498042,2026-05-21T16:07:36.549,-0.00146484375,0.0234375,1.04736328125,0.0,0.0,0.0,1.351318359375,0.10986328125,-25.81787109375,1.0476265103004163,0.0
1779347256.5498042,2026-05-21T16:07:36.549,-0.001953125,0.021484375,1.05322265625,0.0,0.0,0.0,1.351318359375,0.10986328125,-25.81787109375,1.053443570726364,0.0
1779347256.577896,2026-05-21T16:07:36.577,-0.00146484375,0.02197265625,1.04931640625,0.0,0.0,0.0,1.351318359375,0.10986328125,-25.81787109375,1.0495474566761178,0.0
1779347256.577896,2026-05-21T16:07:36.577,-0.001953125,0.02197265625,1.048828125,0.0,0.0,0.0,1.351318359375,0.10986328125,-25.8233642578125,1.049060078408745,0.0
1779347256.577896,2026-05-21T16:07:36.577,-0.00048828125,0.01953125,1.048828125,0.0,0.0,0.0,1.351318359375,0.10986328125,-25.8233642578125,1.0490100780908433,0.0
1779347256.577896,2026-05-21T16:07:36.577,-0.0029296875,0.0224609375,1.04541015625,0.0,0.0,0.0,1.351318359375,0.10986328125,-25.8233642578125,1.0456555224225978,0.0
1779347256.578885,2026-05-21T16:07:36.578,-0.001953125,0.02197265625,1.04541015625,0.0,0.0,0.0,1.351318359375,0.10986328125,-25.8233642578125,1.0456428678619654,0.0
1779347256.578885,2026-05-21T16:07:36.578,-0.0009765625,0.021484375,1.0439453125,0.0,0.0,0.0,1.351318359375,0.10986328125,-25.828857421875,1.044166819782251,0.0
1779347256.578885,2026-05-21T16:07:36.578,-0.00048828125,0.021484375,1.04296875,-0.54931640625,0.1220703125,0.0,1.3458251953125,0.10986328125,-25.828857421875,1.0431901218206978,0.5627163365046929
1779347256.578885,2026-05-21T16:07:36.578,-0.00048828125,0.021484375,1.04541015625,-0.48828125,0.0,0.0,1.3458251953125,0.10986328125,-25.828857421875,1.0456310111977214,0.48828125
1779347256.6390877,2026-05-21T16:07:36.639,-0.00048828125,0.0234375,1.04248046875,-0.42724609375,0.06103515625,0.0,1.34033203125,0.10986328125,-25.8343505859375,1.042744015830371,0.4315837287515549
1779347256.6390877,2026-05-21T16:07:36.639,-0.00244140625,0.01953125,1.0439453125,-0.67138671875,0.0,0.0,1.34033203125,0.10986328125,-25.8343505859375,1.0441308565892318,0.67138671875
1779347256.6390877,2026-05-21T16:07:36.639,-0.00244140625,0.02197265625,1.04296875,-0.48828125,-0.06103515625,0.0,1.3348388671875,0.10986328125,-25.8343505859375,1.043203034679118,0.49208116139517516
1779347256.640068,2026-05-21T16:07:36.640,-0.00244140625,0.02197265625,1.04150390625,-0.30517578125,0.0,0.0,1.3348388671875,0.10986328125,-25.83984375,1.0417385203692753,0.30517578125
1779347256.640068,2026-05-21T16:07:36.640,-0.001953125,0.02197265625,1.03662109375,-0.42724609375,0.06103515625,0.0,1.329345703125,0.10986328125,-25.83984375,1.0368557779784962,0.4315837287515549
1779347256.640068,2026-05-21T16:07:36.640,-0.0029296875,0.02099609375,1.03759765625,-0.48828125,0.0,0.0,1.329345703125,0.10986328125,-25.83984375,1.0378142007493922,0.48828125
1779347256.640068,2026-05-21T16:07:36.640,-0.00048828125,0.02099609375,1.04736328125,-0.3662109375,0.0,0.0,1.3238525390625,0.10986328125,-25.8453369140625,1.047573824263524,0.3662109375
1779347256.640068,2026-05-21T16:07:36.640,-0.001953125,0.02294921875,1.041015625,-0.3662109375,0.18310546875,0.0,1.3238525390625,0.10986328125,-25.8453369140625,1.0412703841138677,0.40943627517696346
1779347256.6690345,2026-05-21T16:07:36.669,-0.00341796875,0.0263671875,1.07177734375,0.0,0.1220703125,0.0,1.3238525390625,0.10986328125,-25.8453369140625,1.0721070775173727,0.1220703125
1779347256.6690345,2026-05-21T16:07:36.669,-0.00244140625,0.021484375,1.04638671875,-0.244140625,0.1220703125,0.0,1.3238525390625,0.10986328125,-25.850830078125,1.0466101012363724,0.2729575167846423
1779347256.6690345,2026-05-21T16:07:36.669,-0.001953125,0.02294921875,1.03857421875,-0.3662109375,0.0,0.0,1.318359375,0.10986328125,-25.850830078125,1.0388295765863975,0.3662109375
1779347256.6690345,2026-05-21T16:07:36.669,0.0,0.0205078125,1.041015625,-0.18310546875,0.06103515625,0.0,1.318359375,0.10986328125,-25.850830078125,1.0412176054349427,0.19301011109426144
1779347256.6690345,2026-05-21T16:07:36.669,0.0,0.0205078125,1.03125,-0.1220703125,0.1220703125,0.0,1.318359375,0.10986328125,-25.850830078125,1.0314538927521362,0.17263349150062196
1779347256.6690345,2026-05-21T16:07:36.669,0.0,0.02197265625,1.0302734375,-0.1220703125,0.06103515625,0.0,1.318359375,0.1153564453125,-25.8563232421875,1.030507716439206,0.13647875839232115
1779347256.6690345,2026-05-21T16:07:36.669,0.00048828125,0.01953125,1.04345703125,-0.06103515625,0.0,0.0,1.318359375,0.1153564453125,-25.8563232421875,1.043639920763002,0.06103515625
1779347256.6690345,2026-05-21T16:07:36.669,-0.0009765625,0.01806640625,1.04296875,0.0,0.0,0.0,1.318359375,0.10986328125,-25.8563232421875,1.0431256694117297,0.0
1779347256.6990285,2026-05-21T16:07:36.699,-0.00146484375,0.0185546875,1.04638671875,0.0,-0.06103515625,0.0,1.318359375,0.10986328125,-25.86181640625,1.0465522382431878,0.06103515625
1779347256.6990285,2026-05-21T16:07:36.699,-0.001953125,0.01806640625,1.0439453125,0.06103515625,0.06103515625,0.0,1.318359375,0.10986328125,-25.86181640625,1.0441034552297863,0.08631674575031098
1779347256.6990285,2026-05-21T16:07:36.699,-0.00341796875,0.02001953125,1.04541015625,-0.1220703125,0.06103515625,0.0,1.3128662109375,0.1153564453125,-25.86181640625,1.0456074114754998,0.13647875839232115
1779347256.6990285,2026-05-21T16:07:36.699,-0.00146484375,0.0205078125,1.056640625,-0.1220703125,0.1220703125,0.0,1.3128662109375,0.1153564453125,-25.8673095703125,1.0568406344104762,0.17263349150062196
1779347256.6990285,2026-05-21T16:07:36.699,-0.001953125,0.0234375,1.04443359375,-0.06103515625,0.06103515625,0.0,1.3128662109375,0.1153564453125,-25.8673095703125,1.0446983597465134,0.08631674575031098
1779347256.6990285,2026-05-21T16:07:36.699,-0.00390625,0.0244140625,1.046875,-0.244140625,0.0,0.0,1.3128662109375,0.1153564453125,-25.8673095703125,1.04716692597781,0.244140625
1779347256.6990285,2026-05-21T16:07:36.699,-0.00146484375,0.02490234375,1.05419921875,-0.3662109375,0.0,0.0,1.307373046875,0.1153564453125,-25.8673095703125,1.0544943173410493,0.3662109375
1779347256.7000103,2026-05-21T16:07:36.700,0.0,0.02197265625,1.04345703125,-0.18310546875,0.06103515625,0.0,1.307373046875,0.1153564453125,-25.872802734375,1.0436883508441321,0.19301011109426144
1779347256.758404,2026-05-21T16:07:36.758,0.0029296875,0.02099609375,1.0390625,-0.30517578125,0.0,0.0,1.307373046875,0.1153564453125,-25.872802734375,1.039278739284056,0.30517578125
1779347256.758404,2026-05-21T16:07:36.758,0.0009765625,0.02099609375,1.0361328125,-0.1220703125,0.0,0.0,1.307373046875,0.1153564453125,-25.872802734375,1.0363459821730556,0.1220703125
1779347256.758404,2026-05-21T16:07:36.758,-0.0009765625,0.0185546875,1.03662109375,-0.1220703125,0.0,0.0,1.3018798828125,0.1153564453125,-25.8782958984375,1.0367875973939817,0.1220703125
1779347256.758404,2026-05-21T16:07:36.758,-0.0048828125,0.01904296875,1.0390625,-0.06103515625,0.1220703125,0.0,1.3018798828125,0.1153564453125,-25.8782958984375,1.039248457022176,0.13647875839232115
1779347256.7594025,2026-05-21T16:07:36.759,-0.00439453125,0.01953125,1.0380859375,0.06103515625,0.06103515625,0.0,1.3018798828125,0.1153564453125,-25.8782958984375,1.03827895830876,0.08631674575031098
1779347256.7594025,2026-05-21T16:07:36.759,-0.00244140625,0.01904296875,1.0400390625,0.0,0.0,0.0,1.3018798828125,0.1153564453125,-25.8782958984375,1.0402162499447747,0.0
1779347256.7594025,2026-05-21T16:07:36.759,-0.00048828125,0.02099609375,1.0439453125,0.0,0.0,0.0,1.3018798828125,0.1153564453125,-25.8837890625,1.044156544710639,0.0
1779347256.7594025,2026-05-21T16:07:36.759,-0.001953125,0.021484375,1.04638671875,0.06103515625,0.0,0.0,1.3018798828125,0.1153564453125,-25.8837890625,1.0466090761324391,0.06103515625
1779347256.788129,2026-05-21T16:07:36.788,-0.00146484375,0.021484375,1.044921875,0.0,0.06103515625,0.0,1.3018798828125,0.1153564453125,-25.8837890625,1.045143745611037,0.06103515625
1779347256.788129,2026-05-21T16:07:36.788,-0.001953125,0.02294921875,1.04443359375,0.06103515625,0.0,0.0,1.3018798828125,0.1153564453125,-25.8892822265625,1.0446875193530556,0.06103515625
1779347256.788129,2026-05-21T16:07:36.788,-0.00146484375,0.0234375,1.046875,0.0,0.0,0.0,1.3018798828125,0.1153564453125,-25.8892822265625,1.0471383517942898,0.0
1779347256.788129,2026-05-21T16:07:36.788,-0.0029296875,0.02294921875,1.04052734375,0.06103515625,0.1220703125,0.0,1.3018798828125,0.1153564453125,-25.8892822265625,1.0407845131445383,0.13647875839232115
1779347256.788129,2026-05-21T16:07:36.788,-0.00146484375,0.0234375,1.04736328125,0.18310546875,0.06103515625,0.0,1.3018798828125,0.1153564453125,-25.8892822265625,1.0476265103004163,0.19301011109426144
1779347256.788129,2026-05-21T16:07:36.788,-0.00146484375,0.0224609375,1.04052734375,0.0,0.0,0.0,1.3018798828125,0.1153564453125,-25.894775390625,1.040770768503815,0.0
1779347256.788129,2026-05-21T16:07:36.788,-0.001953125,0.0205078125,1.0400390625,0.0,0.0,0.0,1.3018798828125,0.1153564453125,-25.894775390625,1.0402430661132425,0.0
1779347256.788129,2026-05-21T16:07:36.788,-0.00244140625,0.02099609375,1.04248046875,0.1220703125,0.0,0.0,1.3018798828125,0.1153564453125,-25.894775390625,1.0426947415914478,0.1220703125
1779347256.8484142,2026-05-21T16:07:36.848,-0.00048828125,0.0205078125,1.04443359375,0.0,0.0,0.0,1.3018798828125,0.1153564453125,-25.9002685546875,1.0446350274357328,0.0
1779347256.8493998,2026-05-21T16:07:36.849,0.0,0.02197265625,1.04052734375,0.0,0.06103515625,0.0,1.3018798828125,0.1153564453125,-25.9002685546875,1.0407593144978868,0.06103515625
1779347256.8493998,2026-05-21T16:07:36.849,-0.00048828125,0.02099609375,1.048828125,0.0,0.0,0.0,1.3018798828125,0.1153564453125,-25.9002685546875,1.0490383740180116,0.0
1779347256.8493998,2026-05-21T16:07:36.849,0.00048828125,0.02197265625,1.0380859375,0.06103515625,0.06103515625,0.0,1.3018798828125,0.1153564453125,-25.9002685546875,1.038318568492596,0.08631674575031098
1779347256.8493998,2026-05-21T16:07:36.849,-0.00146484375,0.01904296875,1.0478515625,0.0,-0.06103515625,0.0,1.3018798828125,0.1153564453125,-25.90576171875,1.04802560916216,0.06103515625
1779347256.8493998,2026-05-21T16:07:36.849,-0.00390625,0.0224609375,1.04736328125,0.0,0.06103515625,0.0,1.3018798828125,0.1153564453125,-25.90576171875,1.0476113761377392,0.06103515625
1779347256.8493998,2026-05-21T16:07:36.849,-0.0009765625,0.02197265625,1.0478515625,-0.06103515625,0.0,0.0,1.3018798828125,0.1153564453125,-25.90576171875,1.048082367149972,0.06103515625
1779347256.8493998,2026-05-21T16:07:36.849,-0.00341796875,0.0205078125,1.0458984375,0.0,0.0,0.0,1.3018798828125,0.1153564453125,-25.90576171875,1.046105058992094,0.0
1779347256.8785603,2026-05-21T16:07:36.878,-0.0029296875,0.02197265625,1.0361328125,0.06103515625,0.0,0.0,1.29638671875,0.1153564453125,-25.9112548828125,1.0363699078179993,0.06103515625
1779347256.8785603,2026-05-21T16:07:36.878,-0.00146484375,0.021484375,1.046875,0.06103515625,0.0,0.0,1.29638671875,0.1153564453125,-25.9112548828125,1.047096456760958,0.06103515625
1779347256.8785603,2026-05-21T16:07:36.878,-0.0009765625,0.02099609375,1.04541015625,0.0,0.06103515625,0.0,1.29638671875,0.1153564453125,-25.9112548828125,1.0456214345630663,0.06103515625
1779347256.8785603,2026-05-21T16:07:36.878,-0.00146484375,0.02001953125,1.0458984375,-0.06103515625,0.0,0.0,1.29638671875,0.1153564453125,-25.916748046875,1.0460910423876226,0.06103515625
1779347256.8785603,2026-05-21T16:07:36.878,-0.00048828125,0.02099609375,1.03662109375,0.0,0.0,0.0,1.29638671875,0.1153564453125,-25.916748046875,1.0368338181110723,0.0
1779347256.8785603,2026-05-21T16:07:36.878,-0.00048828125,0.01708984375,1.04541015625,-0.06103515625,-0.1220703125,0.0,1.29638671875,0.1153564453125,-25.916748046875,1.0455499490548636,0.13647875839232115
1779347256.8785603,2026-05-21T16:07:36.878,-0.001953125,0.0224609375,1.04248046875,0.0,0.0,0.0,1.29638671875,0.1153564453125,-25.916748046875,1.0427242378193116,0.0
1779347256.8785603,2026-05-21T16:07:36.878,-0.00146484375,0.0205078125,1.041015625,0.0,-0.1220703125,0.0,1.29638671875,0.1153564453125,-25.9222412109375,1.041218635846904,0.1220703125
1779347256.9082475,2026-05-21T16:07:36.908,-0.00390625,0.02294921875,1.0390625,0.18310546875,0.0,0.0,1.29638671875,0.1153564453125,-25.9222412109375,1.0393232434312956,0.18310546875
1779347256.9082475,2026-05-21T16:07:36.908,-0.00244140625,0.02197265625,1.04345703125,0.0,-0.06103515625,0.0,1.29638671875,0.1153564453125,-25.9222412109375,1.0436912063212096,0.06103515625
1779347256.9082475,2026-05-21T16:07:36.908,-0.00244140625,0.0234375,1.03662109375,0.06103515625,0.06103515625,0.0,1.29638671875,0.1153564453125,-25.9222412109375,1.0368888893599806,0.08631674575031098
1779347256.9082475,2026-05-21T16:07:36.908,-0.0009765625,0.02294921875,1.044921875,0.06103515625,0.0,0.0,1.29638671875,0.1153564453125,-25.927734375,1.0451743132937525,0.06103515625
1779347256.9082475,2026-05-21T16:07:36.908,-0.00048828125,0.02392578125,1.044921875,0.0,0.0,0.0,1.29638671875,0.1153564453125,-25.927734375,1.0451958698160444,0.0
1779347256.9082475,2026-05-21T16:07:36.908,0.00146484375,0.0244140625,1.03857421875,0.0,0.0,0.0,1.29638671875,0.1153564453125,-25.927734375,1.0388621660582018,0.0
1779347256.9082475,2026-05-21T16:07:36.908,-0.001953125,0.021484375,1.04443359375,0.1220703125,0.0,0.0,1.29638671875,0.1153564453125,-25.9332275390625,1.044656366859431,0.1220703125
1779347256.9082475,2026-05-21T16:07:36.908,-0.0029296875,0.0234375,1.041015625,0.0,0.18310546875,0.0,1.29638671875,0.1153564453125,-25.9332275390625,1.0412835497448514,0.18310546875
1779347256.9684396,2026-05-21T16:07:36.968,-0.0029296875,0.021484375,1.0439453125,0.1220703125,-0.06103515625,0.0,1.29638671875,0.1153564453125,-25.9332275390625,1.0441704731166799,0.13647875839232115
1779347256.9694357,2026-05-21T16:07:36.969,-0.001953125,0.021484375,1.046875,0.1220703125,0.1220703125,0.0,1.29638671875,0.1153564453125,-25.9332275390625,1.0470972536929921,0.17263349150062196
1779347256.9694357,2026-05-21T16:07:36.969,-0.0029296875,0.01904296875,1.04296875,0.06103515625,0.0,0.0,1.29638671875,0.1153564453125,-25.938720703125,1.0431466968764382,0.06103515625
1779347256.9694357,2026-05-21T16:07:36.969,-0.0029296875,0.017578125,1.0439453125,0.0,0.0,0.0,1.29638671875,0.1153564453125,-25.938720703125,1.044097403999304,0.0
1779347256.9694357,2026-05-21T16:07:36.969,-0.0029296875,0.0205078125,1.0439453125,0.0,0.0,0.0,1.29638671875,0.1153564453125,-25.938720703125,1.0441508362938303,0.0
1779347256.9694357,2026-05-21T16:07:36.969,-0.00244140625,0.017578125,1.04541015625,0.0,0.0,0.0,1.29638671875,0.1153564453125,-25.938720703125,1.0455607805066345,0.0
1779347256.9694357,2026-05-21T16:07:36.969,-0.0029296875,0.0205078125,1.04345703125,0.0,0.0,0.0,1.29638671875,0.1153564453125,-25.9442138671875,1.0436626511988663,0.0
1779347256.9694357,2026-05-21T16:07:36.969,-0.00244140625,0.01953125,1.04541015625,0.0,0.0,0.0,1.29638671875,0.1153564453125,-25.9442138671875,1.045595440398288,0.0
1779347257.0273514,2026-05-21T16:07:37.027,-0.001953125,0.0224609375,1.0419921875,0.18310546875,0.0,0.0,1.29638671875,0.1153564453125,-25.9442138671875,1.0422360707736418,0.18310546875
1779347257.0273514,2026-05-21T16:07:37.027,-0.00146484375,0.0234375,1.046875,0.18310546875,0.0,0.0,1.29638671875,0.1153564453125,-25.9442138671875,1.0471383517942898,0.18310546875
1779347257.0273514,2026-05-21T16:07:37.027,-0.0029296875,0.02197265625,1.04296875,0.0,0.0,0.0,1.29638671875,0.1153564453125,-25.94970703125,1.043204291674498,0.0
1779347257.0273514,2026-05-21T16:07:37.027,-0.00390625,0.02099609375,1.0400390625,0.1220703125,0.0,0.0,1.29638671875,0.1153564453125,-25.94970703125,1.0402583074735334,0.1220703125
1779347257.0283468,2026-05-21T16:07:37.028,-0.00146484375,0.01953125,1.0478515625,0.1220703125,-0.06103515625,0.0,1.29638671875,0.1153564453125,-25.94970703125,1.0480345951004986,0.13647875839232115
1779347257.0283468,2026-05-21T16:07:37.028,-0.001953125,0.01953125,1.04443359375,0.0,0.1220703125,0.0,1.29638671875,0.1153564453125,-25.94970703125,1.0446180240534662,0.1220703125
1779347257.0283468,2026-05-21T16:07:37.028,-0.00048828125,0.0205078125,1.0439453125,0.0,0.0,0.0,1.29638671875,0.1153564453125,-25.9552001953125,1.0441468403834955,0.0
1779347257.0283468,2026-05-21T16:07:37.028,0.00048828125,0.02294921875,1.04736328125,0.06103515625,0.0,0.0,1.29638671875,0.1153564453125,-25.9552001953125,1.04761478987774,0.06103515625
1779347257.0283468,2026-05-21T16:07:37.028,-0.001953125,0.02294921875,1.04443359375,0.06103515625,0.0,0.0,1.29638671875,0.1153564453125,-25.9552001953125,1.0446875193530556,0.06103515625
1779347257.0283468,2026-05-21T16:07:37.028,0.0,0.0234375,1.0419921875,0.1220703125,0.06103515625,0.0,1.29638671875,0.1153564453125,-25.9552001953125,1.0422557436720055,0.13647875839232115
1779347257.0283468,2026-05-21T16:07:37.028,-0.001953125,0.01953125,1.044921875,0.0,0.06103515625,0.0,1.29638671875,0.1153564453125,-25.960693359375,1.0451062191362865,0.06103515625
1779347257.0283468,2026-05-21T16:07:37.028,-0.001953125,0.01904296875,1.041015625,0.1220703125,-0.06103515625,0.0,1.29638671875,0.1153564453125,-25.960693359375,1.0411916158182506,0.13647875839232115
1779347257.0283468,2026-05-21T16:07:37.028,-0.00244140625,0.0205078125,1.04052734375,0.1220703125,0.06103515625,0.0,1.29638671875,0.1153564453125,-25.960693359375,1.0407322825440957,0.13647875839232115
1779347257.0283468,2026-05-21T16:07:37.028,-0.00146484375,0.0224609375,1.046875,0.0,0.0,0.0,1.29638671875,0.1153564453125,-25.960693359375,1.0471169491062546,0.0
1779347257.0283468,2026-05-21T16:07:37.028,-0.00048828125,0.0224609375,1.04150390625,0.06103515625,0.1220703125,0.0,1.29638671875,0.1153564453125,-25.9661865234375,1.0417461873536984,0.13647875839232115
1779347257.0293472,2026-05-21T16:07:37.029,-0.001953125,0.02099609375,1.041015625,-0.06103515625,0.06103515625,0.0,1.29638671875,0.1153564453125,-25.9661865234375,1.0412291688884656,0.08631674575031098
1779347257.0873966,2026-05-21T16:07:37.087,-0.00341796875,0.01708984375,1.04248046875,0.06103515625,0.0,0.0,1.29638671875,0.1153564453125,-25.9661865234375,1.042626142485884,0.06103515625
1779347257.0873966,2026-05-21T16:07:37.087,-0.00146484375,0.01953125,1.0458984375,0.06103515625,0.0,0.0,1.29638671875,0.1153564453125,-25.9661865234375,1.0460818118382118,0.06103515625
1779347257.0873966,2026-05-21T16:07:37.087,-0.00341796875,0.02197265625,1.0390625,0.06103515625,0.1220703125,0.0,1.29638671875,0.1153564453125,-25.9716796875,1.0393004180886807,0.13647875839232115
1779347257.0873966,2026-05-21T16:07:37.087,0.00048828125,0.02001953125,1.041015625,0.06103515625,0.06103515625,0.0,1.29638671875,0.1153564453125,-25.9716796875,1.0412082171901014,0.08631674575031098
1779347257.088554,2026-05-21T16:07:37.088,-0.0009765625,0.02197265625,1.04833984375,0.0,0.06103515625,0.0,1.2908935546875,0.1153564453125,-25.9716796875,1.0485705409226274,0.06103515625
1779347257.088554,2026-05-21T16:07:37.088,-0.00048828125,0.021484375,1.04541015625,0.06103515625,0.0,0.0,1.2908935546875,0.1153564453125,-25.9716796875,1.0456310111977214,0.06103515625
1779347257.088554,2026-05-21T16:07:37.088,-0.0029296875,0.02197265625,1.046875,0.0,0.0,0.0,1.2908935546875,0.1153564453125,-25.9716796875,1.0471096629849848,0.0
1779347257.088554,2026-05-21T16:07:37.088,-0.001953125,0.02099609375,1.04638671875,0.0,0.0,0.0,1.2908935546875,0.1153564453125,-25.9771728515625,1.0465991667426533,0.0
1779347257.1180234,2026-05-21T16:07:37.118,-0.00244140625,0.0234375,1.044921875,0.06103515625,0.06103515625,0.0,1.2908935546875,0.1153564453125,-25.9771728515625,1.0451875438045763,0.08631674575031098
1779347257.1180234,2026-05-21T16:07:37.118,-0.00244140625,0.02392578125,1.04443359375,0.0,0.0,0.0,1.2908935546875,0.1153564453125,-25.9771728515625,1.0447104552106485,0.0
1779347257.1180234,2026-05-21T16:07:37.118,-0.00146484375,0.02294921875,1.04248046875,0.06103515625,0.0,0.0,1.2908935546875,0.1153564453125,-25.9771728515625,1.0427340697098504,0.06103515625
1779347257.1180234,2026-05-21T16:07:37.118,-0.00146484375,0.01953125,1.0419921875,0.06103515625,0.0,0.0,1.2908935546875,0.1153564453125,-25.982666015625,1.0421762491559714,0.06103515625
1779347257.1180234,2026-05-21T16:07:37.118,-0.0009765625,0.0205078125,1.04443359375,0.0,0.0,0.0,1.2908935546875,0.1153564453125,-25.982666015625,1.044635369782869,0.0
1779347257.1180234,2026-05-21T16:07:37.118,-0.00048828125,0.017578125,1.0458984375,0.0,0.06103515625,0.0,1.2908935546875,0.1153564453125,-25.982666015625,1.0460462563682527,0.06103515625
1779347257.1180234,2026-05-21T16:07:37.118,-0.00439453125,0.01904296875,1.04248046875,0.0,0.0,0.0,1.2908935546875,0.1153564453125,-25.982666015625,1.042663643889505,0.0
1779347257.1180234,2026-05-21T16:07:37.118,-0.00439453125,0.01904296875,1.0478515625,0.0,0.0,0.0,1.2908935546875,0.1153564453125,-25.9881591796875,1.0480337988812252,0.0
1779347257.1480327,2026-05-21T16:07:37.148,-0.00439453125,0.01904296875,1.03564453125,0.06103515625,0.0,0.0,1.2908935546875,0.1153564453125,-25.9881591796875,1.0358289152518156,0.06103515625
1779347257.1480327,2026-05-21T16:07:37.148,-0.00146484375,0.0205078125,1.0390625,0.0,0.0,0.0,1.2908935546875,0.1153564453125,-25.9881591796875,1.0392658923716285,0.0
1779347257.1480327,2026-05-21T16:07:37.148,-0.00244140625,0.02197265625,1.03955078125,0.06103515625,0.0,0.0,1.2908935546875,0.1153564453125,-25.9881591796875,1.039785836066564,0.06103515625
1779347257.1480327,2026-05-21T16:07:37.148,-0.00439453125,0.02099609375,1.04345703125,0.0,0.0,0.0,1.2908935546875,0.1153564453125,-25.9881591796875,1.0436774999599874,0.0
1779347257.1480327,2026-05-21T16:07:37.148,-0.00439453125,0.02197265625,1.04248046875,0.06103515625,0.0,0.0,1.2908935546875,0.1153564453125,-25.99365234375,1.0427212653690379,0.06103515625
1779347257.1480327,2026-05-21T16:07:37.148,-0.00146484375,0.02392578125,1.04052734375,0.0,0.0,0.0,1.2908935546875,0.1153564453125,-25.99365234375,1.040803411729163,0.0
1779347257.1480327,2026-05-21T16:07:37.148,-0.00048828125,0.0224609375,1.0458984375,0.06103515625,0.0,0.0,1.2908935546875,0.1153564453125,-25.99365234375,1.0461397008511337,0.06103515625
1779347257.149014,2026-05-21T16:07:37.149,0.00048828125,0.02392578125,1.04345703125,0.1220703125,0.0,0.0,1.2908935546875,0.1153564453125,-25.99365234375,1.0437314106091018,0.1220703125
1779347257.2085536,2026-05-21T16:07:37.208,-0.0029296875,0.0224609375,1.03759765625,0.1220703125,0.0,0.0,1.2908935546875,0.1153564453125,-25.9991455078125,1.037844869447125,0.1220703125
1779347257.2085536,2026-05-21T16:07:37.208,-0.00244140625,0.02294921875,1.046875,0.0,0.0,0.0,1.2908935546875,0.1153564453125,-25.9991455078125,1.0471293581648415,0.0
1779347257.2085536,2026-05-21T16:07:37.208,-0.00244140625,0.021484375,1.03759765625,0.1220703125,0.1220703125,0.0,1.2908935546875,0.1153564453125,-25.9991455078125,1.0378229305084328,0.17263349150062196
1779347257.2085536,2026-05-21T16:07:37.208,-0.0029296875,0.021484375,1.0390625,0.06103515625,0.1220703125,0.0,1.2908935546875,0.1153564453125,-25.9991455078125,1.039288718472513,0.13647875839232115
1779347257.2085536,2026-05-21T16:07:37.208,-0.001953125,0.0205078125,1.0390625,0.06103515625,0.0,0.0,1.2908935546875,0.1153564453125,-26.004638671875,1.0392666953083076,0.06103515625
1779347257.2085536,2026-05-21T16:07:37.208,0.0,0.021484375,1.04443359375,0.06103515625,-0.06103515625,0.0,1.2908935546875,0.1153564453125,-26.004638671875,1.0446545410434402,0.08631674575031098
1779347257.2095392,2026-05-21T16:07:37.209,-0.0029296875,0.02099609375,1.03955078125,0.1220703125,0.0,0.0,1.2908935546875,0.1153564453125,-26.004638671875,1.0397669189866985,0.1220703125
1779347257.2095392,2026-05-21T16:07:37.209,-0.00048828125,0.02099609375,1.04638671875,0.06103515625,0.0,0.0,1.2908935546875,0.1153564453125,-26.004638671875,1.04659745821769,0.06103515625
1779347257.2372723,2026-05-21T16:07:37.237,-0.00146484375,0.02001953125,1.046875,0.0,0.0,0.0,1.2908935546875,0.1153564453125,-26.004638671875,1.0470674252519183,0.0
1779347257.2372723,2026-05-21T16:07:37.237,-0.00146484375,0.02001953125,1.04541015625,0.18310546875,0.0,0.0,1.2908935546875,0.1153564453125,-26.0101318359375,1.0456028510812942,0.18310546875
1779347257.2372723,2026-05-21T16:07:37.237,-0.0029296875,0.02392578125,1.04638671875,0.244140625,0.06103515625,0.0,1.2908935546875,0.1153564453125,-26.0101318359375,1.0466643164136542,0.2516543960948279
1779347257.2372723,2026-05-21T16:07:37.237,-0.00244140625,0.02001953125,1.04541015625,0.1220703125,0.0,0.0,1.2908935546875,0.1153564453125,-26.0101318359375,1.0456046752413632,0.1220703125
1779347257.2372723,2026-05-21T16:07:37.237,-0.00341796875,0.02099609375,1.041015625,0.1220703125,0.0,0.0,1.2908935546875,0.1153564453125,-26.0101318359375,1.0412329470187136,0.1220703125
1779347257.238274,2026-05-21T16:07:37.238,-0.00146484375,0.01953125,1.044921875,0.18310546875,-0.06103515625,0.0,1.2908935546875,0.1153564453125,-26.0101318359375,1.045105420686014,0.19301011109426144
1779347257.238274,2026-05-21T16:07:37.238,-0.00341796875,0.0205078125,1.04052734375,0.18310546875,0.0,0.0,1.2908935546875,0.1153564453125,-26.015625,1.0407350315884163,0.18310546875
1779347257.238274,2026-05-21T16:07:37.238,-0.00244140625,0.02197265625,1.044921875,0.06103515625,0.0,0.0,1.2908935546875,0.1153564453125,-26.015625,1.045155721861902,0.06103515625
1779347257.2679658,2026-05-21T16:07:37.267,-0.00146484375,0.02197265625,1.03955078125,0.244140625,-0.06103515625,0.0,1.2908935546875,0.1153564453125,-26.015625,1.0397840016981306,0.2516543960948279
1779347257.2679658,2026-05-21T16:07:37.267,-0.00048828125,0.0224609375,1.04296875,0.06103515625,0.0,0.0,1.2908935546875,0.1153564453125,-26.015625,1.043210690900223,0.06103515625
1779347257.2679658,2026-05-21T16:07:37.267,-0.001953125,0.0224609375,1.041015625,0.18310546875,0.0,0.0,1.29638671875,0.1153564453125,-26.0211181640625,1.0412597370035899,0.18310546875
1779347257.2679658,2026-05-21T16:07:37.267,-0.00244140625,0.02197265625,1.04248046875,0.1220703125,0.06103515625,0.0,1.29638671875,0.1153564453125,-26.0211181640625,1.0427148631396685,0.13647875839232115
1779347257.2679658,2026-05-21T16:07:37.267,-0.00244140625,0.0205078125,1.0439453125,0.18310546875,0.0,0.0,1.29638671875,0.1153564453125,-26.0211181640625,1.0441495804379444,0.18310546875
1779347257.2679658,2026-05-21T16:07:37.267,-0.001953125,0.02197265625,1.044921875,0.06103515625,0.06103515625,0.0,1.29638671875,0.1153564453125,-26.0211181640625,1.045154695331491,0.08631674575031098
1779347257.2679658,2026-05-21T16:07:37.267,0.0,0.02099609375,1.04541015625,0.0,0.0,0.0,1.29638671875,0.1153564453125,-26.0211181640625,1.0456209785306567,0.0
1779347257.2679658,2026-05-21T16:07:37.267,-0.00244140625,0.021484375,1.04443359375,0.06103515625,0.0,0.0,1.29638671875,0.1153564453125,-26.026611328125,1.0446573938795236,0.06103515625
1779347257.3276951,2026-05-21T16:07:37.327,-0.001953125,0.01953125,1.04541015625,0.1220703125,-0.06103515625,0.0,1.29638671875,0.1153564453125,-26.026611328125,1.045594414299578,0.13647875839232115
1779347257.3287199,2026-05-21T16:07:37.328,-0.0048828125,0.02392578125,1.04443359375,0.18310546875,0.0,0.0,1.29638671875,0.1153564453125,-26.026611328125,1.04471901323747,0.18310546875
1779347257.3287199,2026-05-21T16:07:37.328,-0.0029296875,0.02099609375,1.0419921875,0.06103515625,0.0,0.0,1.29638671875,0.1153564453125,-26.026611328125,1.0422078189270323,0.06103515625
1779347257.3287199,2026-05-21T16:07:37.328,-0.001953125,0.021484375,1.0419921875,0.18310546875,0.0,0.0,1.29638671875,0.1153564453125,-26.026611328125,1.0422154824590937,0.18310546875
1779347257.3287199,2026-05-21T16:07:37.328,-0.001953125,0.0205078125,1.03857421875,0.0,-0.06103515625,0.0,1.29638671875,0.1153564453125,-26.0321044921875,1.0387785100409874,0.06103515625
1779347257.3287199,2026-05-21T16:07:37.328,0.0,0.0205078125,1.04248046875,0.1220703125,0.06103515625,0.0,1.29638671875,0.1153564453125,-26.0321044921875,1.0426821654266245,0.13647875839232115
1779347257.3287199,2026-05-21T16:07:37.328,-0.001953125,0.02197265625,1.03271484375,0.06103515625,0.06103515625,0.0,1.29638671875,0.1153564453125,-26.0321044921875,1.0329504154709137,0.08631674575031098
1779347257.3287199,2026-05-21T16:07:37.328,-0.00341796875,0.02392578125,1.04345703125,0.06103515625,0.0,0.0,1.29638671875,0.1153564453125,-26.0321044921875,1.0437368928920077,0.06103515625
1779347257.3588731,2026-05-21T16:07:37.358,-0.00244140625,0.0244140625,1.04541015625,0.18310546875,0.0,0.0,1.29638671875,0.1153564453125,-26.0321044921875,1.0456980451845939,0.18310546875
1779347257.3588731,2026-05-21T16:07:37.358,-0.0029296875,0.02197265625,1.05078125,0.06103515625,-0.06103515625,0.0,1.29638671875,0.1153564453125,-26.03759765625,1.0510150408262913,0.08631674575031098
1779347257.3588731,2026-05-21T16:07:37.358,0.0,0.0224609375,1.0419921875,0.1220703125,0.0,0.0,1.29638671875,0.1153564453125,-26.03759765625,1.0422342407177065,0.1220703125
1779347257.3588731,2026-05-21T16:07:37.358,-0.0009765625,0.02294921875,1.04443359375,0.0,-0.1220703125,0.0,1.29638671875,0.1153564453125,-26.03759765625,1.044686150032196,0.1220703125
1779347257.3588731,2026-05-21T16:07:37.358,-0.00244140625,0.02197265625,1.04052734375,0.1220703125,0.0,0.0,1.29638671875,0.1153564453125,-26.03759765625,1.0407621780111866,0.1220703125
1779347257.3588731,2026-05-21T16:07:37.358,0.0,0.021484375,1.0419921875,0.1220703125,0.0,0.0,1.29638671875,0.1153564453125,-26.03759765625,1.0422136523670067,0.1220703125
1779347257.3588731,2026-05-21T16:07:37.358,-0.00048828125,0.021484375,1.04345703125,0.1220703125,0.0,0.0,1.29638671875,0.1153564453125,-26.0430908203125,1.0436782995026692,0.1220703125
1779347257.3588731,2026-05-21T16:07:37.358,-0.0009765625,0.02099609375,1.04248046875,0.18310546875,0.06103515625,0.0,1.29638671875,0.1153564453125,-26.0430908203125,1.042692340698969,0.19301011109426144
1779347257.3874097,2026-05-21T16:07:37.387,-0.00146484375,0.01904296875,1.0439453125,0.06103515625,0.0,0.0,1.29638671875,0.1153564453125,-26.0430908203125,1.0441200103037716,0.06103515625
1779347257.3874097,2026-05-21T16:07:37.387,0.00048828125,0.021484375,1.03662109375,0.06103515625,0.06103515625,0.0,1.29638671875,0.1153564453125,-26.0430908203125,1.0368438208308741,0.08631674575031098
1779347257.388523,2026-05-21T16:07:37.388,-0.00244140625,0.0205078125,1.03759765625,0.06103515625,0.0,0.0,1.29638671875,0.1153564453125,-26.0430908203125,1.0378031735803788,0.06103515625
1779347257.388523,2026-05-21T16:07:37.388,-0.00439453125,0.02099609375,1.041015625,0.1220703125,0.0,0.0,1.29638671875,0.1153564453125,-26.048583984375,1.041236610647074,0.1220703125
1779347257.388523,2026-05-21T16:07:37.388,-0.00439453125,0.0205078125,1.04296875,0.1220703125,0.0,0.0,1.29638671875,0.1153564453125,-26.048583984375,1.0431796085789853,0.1220703125
1779347257.388523,2026-05-21T16:07:37.388,-0.001953125,0.0205078125,1.037109375,0.0,0.0,0.0,1.29638671875,0.1153564453125,-26.048583984375,1.0373139547811412,0.0
1779347257.388523,2026-05-21T16:07:37.388,-0.00341796875,0.02294921875,1.03173828125,0.06103515625,0.06103515625,0.0,1.29638671875,0.1153564453125,-26.048583984375,1.0319991425133626,0.08631674575031098
1779347257.388523,2026-05-21T16:07:37.388,-0.0009765625,0.0234375,1.04052734375,0.18310546875,0.0,0.0,1.29638671875,0.1153564453125,-26.048583984375,1.040791729008257,0.18310546875
1779347257.4471176,2026-05-21T16:07:37.447,-0.00146484375,0.0224609375,1.04736328125,0.1220703125,-0.06103515625,0.0,1.29638671875,0.1153564453125,-26.0540771484375,1.0476051175855134,0.13647875839232115
1779347257.4471176,2026-05-21T16:07:37.447,0.01171875,0.0205078125,1.044921875,1.28173828125,0.9765625,-0.9765625,1.307373046875,0.120849609375,-26.0540771484375,1.0451887984132882,1.8841978809122475
1779347257.4483774,2026-05-21T16:07:37.448,-0.07275390625,0.00927734375,1.0849609375,-2.197265625,6.53076171875,2.62451171875,1.2908935546875,0.15380859375,-26.0430908203125,1.0874370951381824,7.373390442378131
1779347257.4483774,2026-05-21T16:07:37.448,-0.3193359375,-0.0869140625,1.10986328125,-5.79833984375,27.89306640625,17.88330078125,1.263427734375,0.296630859375,-25.94970703125,1.1581562926938118,33.63712748318066
1779347257.4483774,2026-05-21T16:07:37.448,-0.35400390625,-0.119140625,0.89453125,8.60595703125,-1.40380859375,33.38623046875,1.307373046875,0.2911376953125,-25.784912109375,0.9693809423504322,34.50613800331904
1779347257.4483774,2026-05-21T16:07:37.448,0.0,-0.017578125,1.1083984375,5.2490234375,-4.2724609375,57.67822265625,1.329345703125,0.2691650390625,-25.499267578125,1.1085378147501135,58.073948878079904
1779347257.4483774,2026-05-21T16:07:37.448,0.3359375,0.078125,1.03125,2.13623046875,6.89697265625,87.58544921875,1.34033203125,0.2911376953125,-25.0653076171875,1.0873978490098506,87.88255018652401
1779347257.4483774,2026-05-21T16:07:37.448,0.66845703125,0.16015625,1.06640625,-7.32421875,-1.5869140625,110.29052734375,1.307373046875,0.2691650390625,-24.5159912109375,1.268742336757424,110.54484564330477
1779347257.4786723,2026-05-21T16:07:37.478,-0.01953125,0.0478515625,1.0185546875,-12.0849609375,12.20703125,82.09228515625,1.2469482421875,0.318603515625,-24.1094970703125,1.0198651348038508,83.87014471773875
1779347257.4786723,2026-05-21T16:07:37.478,0.015625,0.166015625,0.9912109375,-1.89208984375,4.21142578125,47.91259765625,1.241455078125,0.32958984375,-23.8787841796875,1.0051390207273667,48.13453152631167
1779347257.4786723,2026-05-21T16:07:37.478,0.05810546875,0.17724609375,1.0498046875,-4.82177734375,-5.4931640625,34.11865234375,1.219482421875,0.296630859375,-23.7139892578125,1.0662468312474667,34.89279045768509
1779347257.4786723,2026-05-21T16:07:37.478,0.078125,0.052734375,1.05517578125,-6.103515625,-2.01416015625,35.33935546875,1.1920166015625,0.274658203125,-23.5491943359375,1.0593773450797352,35.919072775703924
1779347257.4786723,2026-05-21T16:07:37.478,0.04150390625,0.02197265625,1.04150390625,0.06103515625,3.72314453125,40.1611328125,1.1920166015625,0.28564453125,-23.3514404296875,1.0425621125816429,40.333387153500254
1779347257.4786723,2026-05-21T16:07:37.478,0.025390625,0.0380859375,1.04345703125,2.74658203125,5.9814453125,37.353515625,1.2139892578125,0.3076171875,-23.1756591796875,1.0444605299092005,37.92896690430591
1779347257.4786723,2026-05-21T16:07:37.478,0.0166015625,0.01123046875,1.05029296875,4.82177734375,5.31005859375,33.14208984375,1.2359619140625,0.3240966796875,-23.016357421875,1.0504842005054025,33.90935532022035
1779347257.4786723,2026-05-21T16:07:37.478,0.06494140625,0.02197265625,1.04736328125,4.69970703125,0.1220703125,33.75244140625,1.263427734375,0.318603515625,-22.8570556640625,1.0496047002463236,34.07828411500664
1779347257.507531,2026-05-21T16:07:37.507,0.0693359375,-0.00439453125,1.0478515625,4.94384765625,0.42724609375,34.5458984375,1.2908935546875,0.3131103515625,-22.6922607421875,1.0501522180939307,34.90047661174412
1779347257.507531,2026-05-21T16:07:37.507,0.1455078125,-0.01318359375,1.08642578125,7.080078125,0.42724609375,32.28759765625,1.329345703125,0.3021240234375,-22.5439453125,1.0962058697194488,33.05751061245551
1779347257.507531,2026-05-21T16:07:37.507,0.1259765625,-0.0615234375,1.03125,9.70458984375,1.03759765625,26.42822265625,1.3787841796875,0.296630859375,-22.4176025390625,1.0407361770214067,28.172799394096373
1779347257.507531,2026-05-21T16:07:37.507,0.140625,-0.12939453125,1.02001953125,6.591796875,0.54931640625,26.3671875,1.40625,0.2911376953125,-22.2967529296875,1.0377659560198904,27.184225411359275
1779347257.507531,2026-05-21T16:07:37.507,0.01513671875,-0.13232421875,1.0703125,3.47900390625,0.91552734375,32.40966796875,1.4227294921875,0.2801513671875,-22.1429443359375,1.078567414109366,32.608714116651036
1779347257.5085318,2026-05-21T16:07:37.508,-0.09033203125,-0.0703125,1.0498046875,0.3662109375,0.1220703125,33.14208984375,1.4227294921875,0.274658203125,-21.9891357421875,1.0560272749427326,33.14433783956372
1779347257.5085318,2026-05-21T16:07:37.508,-0.1943359375,0.0,1.03466796875,-2.197265625,0.30517578125,29.23583984375,1.4117431640625,0.263671875,-21.851806640625,1.0527603061292037,29.31988130695055
1779347257.5085318,2026-05-21T16:07:37.508,-0.2236328125,0.01416015625,1.04736328125,-4.150390625,1.8310546875,20.81298828125,1.38427734375,0.2691650390625,-21.7584228515625,1.071065818594941,21.301619300047438
1779347257.5691056,2026-05-21T16:07:37.569,-0.17333984375,0.033203125,1.06103515625,-2.62451171875,1.0986328125,14.46533203125,1.3677978515625,0.274658203125,-21.7034912109375,1.075613662863903,14.742485767090466
1779347257.569994,2026-05-21T16:07:37.569,-0.0869140625,-0.0009765625,1.064453125,-5.43212890625,0.91552734375,10.07080078125,1.34033203125,0.274658203125,-21.6650390625,1.0679960033899172,11.478991381950609
1779347257.569994,2026-05-21T16:07:37.569,-0.0537109375,-0.05224609375,1.0390625,-11.5966796875,0.79345703125,6.4697265625,1.2799072265625,0.2801513671875,-21.6485595703125,1.0417607201394727,13.303004007683123
1779347257.569994,2026-05-21T16:07:37.569,-0.0361328125,-0.0361328125,1.0693359375,-19.95849609375,0.91552734375,1.28173828125,1.175537109375,0.28564453125,-21.654052734375,1.0705561673762494,20.020554679204313
1779347257.569994,2026-05-21T16:07:37.569,-0.029296875,0.029296875,1.04150390625,-12.20703125,3.662109375,2.86865234375,1.1151123046875,0.3021240234375,-21.654052734375,1.0423276838420537,13.063377177523499
1779347257.569994,2026-05-21T16:07:37.569,-0.0390625,0.12158203125,1.1552734375,0.18310546875,10.7421875,14.70947265625,1.109619140625,0.3570556640625,-21.588134765625,1.1623101069087338,18.215287692562224
1779347257.569994,2026-05-21T16:07:37.569,-0.0712890625,0.05810546875,1.1591796875,4.94384765625,24.35302734375,4.45556640625,1.1370849609375,0.4779052734375,-21.5771484375,1.1628223956578165,25.246061919716258
1779347257.569994,2026-05-21T16:07:37.569,-0.2509765625,-0.181640625,0.6162109375,0.6103515625,18.98193359375,-4.33349609375,1.1370849609375,0.5767822265625,-21.610107421875,0.6897089756334449,19.479874752726914
1779347257.5982413,2026-05-21T16:07:37.598,-0.13525390625,-0.169921875,0.6533203125,-0.6103515625,-28.62548828125,9.033203125,1.1260986328125,0.4339599609375,-21.5771484375,0.6884725800527549,30.023155514824506
1779347257.5992553,2026-05-21T16:07:37.599,-0.02294921875,-0.13720703125,1.58837890625,3.35693359375,-48.2177734375,19.4091796875,1.142578125,0.19775390625,-21.4947509765625,1.5944591515261908,52.085880376207434
1779347257.5992553,2026-05-21T16:07:37.599,-0.0732421875,0.12890625,1.17724609375,-13.7939453125,-8.1787109375,8.6669921875,1.065673828125,0.1593017578125,-21.4617919921875,1.1865452391579856,18.22857628729158
1779347257.5992553,2026-05-21T16:07:37.599,0.0859375,0.1181640625,1.087890625,1.708984375,-0.54931640625,5.2490234375,1.0711669921875,0.1593017578125,-21.4508056640625,1.0976584220674683,5.547488004096437
1779347257.5992553,2026-05-21T16:07:37.599,0.0791015625,0.14013671875,1.0283203125,5.37109375,1.15966796875,4.150390625,1.0986328125,0.1702880859375,-21.434326171875,1.0408352522047164,6.886161500365912
1779347257.5992553,2026-05-21T16:07:37.599,0.08349609375,0.06005859375,1.02099609375,7.6904296875,0.0,10.498046875,1.131591796875,0.1702880859375,-21.3958740234375,1.0261635619176386,13.013519776297212
1779347257.5992553,2026-05-21T16:07:37.599,-0.00341796875,0.00830078125,1.0400390625,12.75634765625,-0.244140625,16.6015625,1.197509765625,0.1702880859375,-21.3189697265625,1.0400778033424303,20.937905521166545
1779347257.5992553,2026-05-21T16:07:37.599,0.0,0.03125,1.0478515625,8.6669921875,-0.42724609375,18.85986328125,1.2359619140625,0.1702880859375,-21.236572265625,1.0483174421584769,20.76038862329539
1779347257.6283906,2026-05-21T16:07:37.628,0.01708984375,0.09033203125,1.0341796875,2.9296875,0.0,17.9443359375,1.25244140625,0.1702880859375,-21.1541748046875,1.038257947076134,18.181921270468372
1779347257.6283906,2026-05-21T16:07:37.628,-0.02880859375,0.06103515625,1.02587890625,5.43212890625,-1.0986328125,21.8505859375,1.2799072265625,0.1593017578125,-21.0552978515625,1.0280966664964004,22.542473784456117
1779347257.6283906,2026-05-21T16:07:37.628,-0.01123046875,0.00830078125,1.03466796875,6.89697265625,-1.64794921875,26.30615234375,1.3128662109375,0.15380859375,-20.9344482421875,1.0347622103434952,27.2451393753312
1779347257.6283906,2026-05-21T16:07:37.628,-0.0615234375,0.0771484375,1.01953125,-8.544921875,-11.8408203125,30.09033203125,1.2689208984375,0.0933837890625,-20.797119140625,1.024295359990013,33.44620751705096
1779347257.6283906,2026-05-21T16:07:37.628,-0.0068359375,0.037109375,1.04638671875,-8.9111328125,-15.625,27.7099609375,1.2249755859375,0.010986328125,-20.6707763671875,1.0470668559985967,33.036205111359116
1779347257.6283906,2026-05-21T16:07:37.628,0.0556640625,0.03466796875,1.078125,-10.19287109375,-17.578125,23.3154296875,1.175537109375,-0.0714111328125,-20.56640625,1.0801175267239462,30.9272430255622
1779347257.6283906,2026-05-21T16:07:37.628,0.62109375,-0.00927734375,1.33642578125,5.37109375,33.203125,4.94384765625,1.197509765625,0.087890625,-20.5499267578125,1.473729074214725,33.99614371491453
1779347257.6283906,2026-05-21T16:07:37.628,0.51171875,0.30615234375,2.04345703125,-18.98193359375,-18.37158203125,28.564453125,1.1041259765625,-0.010986328125,-20.423583984375,2.128685504072935,38.90702779214579
1779347257.687328,2026-05-21T16:07:37.687,-0.14111328125,0.09375,0.9912109375,1.77001953125,4.39453125,6.16455078125,1.1151123046875,0.0,-20.401611328125,1.005584975655847,7.774738605435106
1779347257.687328,2026-05-21T16:07:37.687,-0.00244140625,-0.0009765625,1.048828125,1.64794921875,-1.40380859375,0.1220703125,1.1260986328125,-0.0054931640625,-20.41259765625,1.0488314211205771,2.1682519126381363
1779347257.6884584,2026-05-21T16:07:37.688,-0.033203125,0.0634765625,1.05029296875,0.18310546875,-0.1220703125,1.64794921875,1.131591796875,-0.010986328125,-20.41259765625,1.0527331293838293,1.6625779384614545
1779347257.6884584,2026-05-21T16:07:37.688,-0.02685546875,-0.00244140625,1.04736328125,-0.30517578125,-0.54931640625,1.953125,1.131591796875,-0.0164794921875,-20.4180908203125,1.0477103700818402,2.0517256242641126
1779347257.6884584,2026-05-21T16:07:37.688,-0.0556640625,-0.072265625,1.05224609375,-0.18310546875,-0.6103515625,-9.6435546875,1.131591796875,-0.02197265625,-20.4730224609375,1.0561925251689572,9.664585022303626
1779347257.6884584,2026-05-21T16:07:37.688,-0.01513671875,-0.00341796875,1.0576171875,-0.3662109375,-0.54931640625,-17.08984375,1.131591796875,-0.0274658203125,-20.5718994140625,1.0577310234933561,17.10259098395135
1779347257.6884584,2026-05-21T16:07:37.688,0.02294921875,0.0185546875,1.0498046875,0.0,-0.42724609375,-21.1181640625,1.131591796875,-0.032958984375,-20.687255859375,1.0502194175344648,21.122485473904135
1779347257.6884584,2026-05-21T16:07:37.688,0.03173828125,0.06787109375,1.03759765625,-2.62451171875,-4.150390625,-18.37158203125,1.12060546875,-0.054931640625,-20.7861328125,1.0402993319804732,19.016540969190267
1779347257.7186632,2026-05-21T16:07:37.719,0.0263671875,0.0439453125,1.0380859375,-3.47900390625,-5.67626953125,-14.2822265625,1.1041259765625,-0.0823974609375,-20.863037109375,1.0393501973361225,15.757712383264279
1779347257.7196608,2026-05-21T16:07:37.719,0.0205078125,0.015625,1.04296875,-3.173828125,-5.2490234375,-15.19775390625,1.087646484375,-0.10986328125,-20.950927734375,1.0432873642842118,16.38893394365242
1779347257.7196608,2026-05-21T16:07:37.719,0.02978515625,0.001953125,1.0419921875,-2.9296875,-4.638671875,-20.08056640625,1.07666015625,-0.1373291015625,-21.0552978515625,1.0424196319338666,20.816567748007554
1779347257.7196608,2026-05-21T16:07:37.719,0.02001953125,0.0107421875,1.04248046875,-2.0751953125,-3.96728515625,-17.51708984375,1.065673828125,-0.1593017578125,-21.148681640625,1.0427280105324563,18.080216361814728
1779347257.7196608,2026-05-21T16:07:37.719,-0.01171875,0.0478515625,1.03857421875,-2.3193359375,-3.60107421875,-15.2587890625,1.0546875,-0.17578125,-21.236572265625,1.0397420396364796,15.848586636473126
1779347257.7196608,2026-05-21T16:07:37.719,-0.02001953125,0.0380859375,1.04052734375,-2.44140625,-4.94384765625,-13.24462890625,1.043701171875,-0.2032470703125,-21.3079833984375,1.0414165705221683,14.346507902274363
1779347257.7196608,2026-05-21T16:07:37.719,-0.02880859375,0.02490234375,1.03759765625,-2.685546875,-5.126953125,-6.28662109375,1.03271484375,-0.230712890625,-21.346435546875,1.0382961803134927,8.545139854920572
1779347257.7196608,2026-05-21T16:07:37.719,-0.021484375,-0.04345703125,1.0478515625,-5.55419921875,-10.498046875,-3.2958984375,1.0052490234375,-0.28564453125,-21.368408203125,1.0489723490006282,12.325626298958415
1779347257.7482166,2026-05-21T16:07:37.748,-0.00341796875,-0.099609375,1.05517578125,-2.74658203125,-4.638671875,-2.5634765625,0.9942626953125,-0.3076171875,-21.390380859375,1.059872463759114,5.96928820754939
1779347257.7482166,2026-05-21T16:07:37.748,-0.076171875,-0.017578125,1.0576171875,-0.79345703125,-1.52587890625,-2.8076171875,0.98876953125,-0.3131103515625,-21.412353515625,1.0605023622392085,3.2925058494289985
1779347257.7482166,2026-05-21T16:07:37.748,-0.072265625,-0.05712890625,1.0517578125,-1.77001953125,-2.13623046875,-2.685546875,0.977783203125,-0.3240966796875,-21.434326171875,1.0557843191868057,3.861167151839529
1779347257.7482166,2026-05-21T16:07:37.748,0.0029296875,-0.0859375,1.044921875,0.18310546875,2.0751953125,1.15966796875,0.977783203125,-0.3131103515625,-21.434326171875,1.048453891131419,2.384280393630934
1779347257.7482166,2026-05-21T16:07:37.748,0.02294921875,-0.1943359375,1.0302734375,-1.0986328125,2.25830078125,9.521484375,0.9722900390625,-0.3021240234375,-21.3958740234375,1.0486927477880763,9.847110295851527
1779347257.7482166,2026-05-21T16:07:37.748,-0.06298828125,-0.1171875,1.04248046875,-0.42724609375,0.9765625,15.7470703125,0.9613037109375,-0.3021240234375,-21.3189697265625,1.0509357551517118,15.78310606211115
1779347257.7492228,2026-05-21T16:07:37.749,-0.15869140625,-0.05810546875,1.05859375,-4.57763671875,-6.7138671875,12.63427734375,0.933837890625,-0.3350830078125,-21.26953125,1.0719981042218882,15.021841915658412
1779347257.7492228,2026-05-21T16:07:37.749,-0.1728515625,0.01953125,1.0576171875,-0.3662109375,-1.5869140625,4.08935546875,0.9283447265625,-0.3350830078125,-21.258544921875,1.0718270605282665,4.401730891626658
1779347257.8077614,2026-05-21T16:07:37.807,-0.2451171875,0.07763671875,1.015625,-3.90625,-5.37109375,-2.50244140625,0.9063720703125,-0.3570556640625,-21.2750244140625,1.047665994642938,7.097157890698469
1779347257.808762,2026-05-21T16:07:37.808,-0.244140625,0.24365234375,1.05419921875,-3.35693359375,-8.11767578125,-1.77001953125,0.889892578125,-0.3900146484375,-21.2969970703125,1.1091920943657005,8.960950417413688
1779347257.808762,2026-05-21T16:07:37.808,-0.2763671875,0.2568359375,1.09375,-5.0048828125,-26.0009765625,5.43212890625,0.8624267578125,-0.5108642578125,-21.280517578125,1.1569929056040769,27.029755060389448
1779347257.808762,2026-05-21T16:07:37.808,-0.20947265625,0.2373046875,1.37548828125,26.2451171875,-34.0576171875,9.58251953125,0.999755859375,-0.670166015625,-21.24755859375,1.4114390954915421,44.051698551164755
1779347257.808762,2026-05-21T16:07:37.808,0.0,0.541015625,2.1435546875,80.810546875,16.90673828125,9.6435546875,1.40625,-0.5767822265625,-21.20361328125,2.210774661696068,83.12147997093206
1779347257.808762,2026-05-21T16:07:37.808,-0.046875,0.4443359375,2.02001953125,63.8427734375,53.1005859375,8.11767578125,1.7303466796875,-0.3076171875,-21.1651611328125,2.0688428160714563,83.43541578482888
1779347257.808762,2026-05-21T16:07:37.808,-0.12548828125,0.138671875,1.75927734375,65.12451171875,64.697265625,3.47900390625,2.0599365234375,0.0164794921875,-21.148681640625,1.7691902017248315,91.86425678215176
1779347257.8097615,2026-05-21T16:07:37.809,-0.0986328125,0.10546875,1.64013671875,89.9658203125,76.47705078125,-12.75634765625,2.515869140625,0.4119873046875,-21.2091064453125,1.6464812616972715,118.76578853451883
1779347257.8377612,2026-05-21T16:07:37.837,0.00927734375,0.1142578125,1.62841796875,101.98974609375,100.341796875,-33.447265625,3.0267333984375,0.9228515625,-21.3629150390625,1.6324478545338643,146.93231123942977
1779347257.8407626,2026-05-21T16:07:37.840,0.0927734375,0.0439453125,1.54541015625,107.84912109375,121.58203125,-47.30224609375,3.5595703125,1.549072265625,-21.5716552734375,1.5488158871334379,169.26643414771877
1779347257.8407626,2026-05-21T16:07:37.840,0.140625,-0.00048828125,1.4111328125,112.548828125,126.46484375,-49.62158203125,4.1143798828125,2.1917724609375,-21.785888671875,1.4181225065408627,176.41682691939218
1779347257.8407626,2026-05-21T16:07:37.840,0.18212890625,0.0341796875,1.29345703125,112.060546875,110.595703125,-40.771484375,4.6636962890625,2.757568359375,-21.95068359375,1.3066637980825375,162.63852450688944
1779347257.8407626,2026-05-21T16:07:37.840,0.18994140625,0.0947265625,1.279296875,113.09814453125,87.0361328125,-27.52685546875,5.218505859375,3.1915283203125,-22.0550537109375,1.2967850067902773,145.34168873163716
1779347257.8437622,2026-05-21T16:07:37.843,0.1708984375,0.14306640625,1.29150390625,119.2626953125,72.1435546875,-13.916015625,5.8062744140625,3.548583984375,-22.0880126953125,1.3105939922021008,140.07832975526856
1779347257.8437622,2026-05-21T16:07:37.843,0.13232421875,0.1845703125,1.30810546875,127.0751953125,65.36865234375,2.74658203125,6.43798828125,3.8616943359375,-22.0330810546875,1.3276730834425328,142.929037238073
1779347257.8437622,2026-05-21T16:07:37.843,0.01171875,0.23681640625,1.37158203125,139.22119140625,61.09619140625,20.20263671875,7.1356201171875,4.141845703125,-21.8902587890625,1.3919255036885427,153.37350250716264
1779347257.8683527,2026-05-21T16:07:37.868,-0.10888671875,0.29736328125,1.4501953125,150.634765625,57.0068359375,35.33935546875,7.8936767578125,4.3890380859375,-21.6705322265625,1.484367772134952,164.8923345806299
1779347257.869348,2026-05-21T16:07:37.869,-0.24853515625,0.2890625,1.470703125,160.5224609375,58.59375,47.2412109375,8.7066650390625,4.6307373046875,-21.3848876953125,1.5193072548642779,177.29190623188381
1779347257.869348,2026-05-21T16:07:37.869,-0.46875,0.2392578125,1.40576171875,169.86083984375,58.7158203125,46.93603515625,9.5635986328125,4.8724365234375,-21.09375,1.5010452602254334,185.75048819204383
1779347257.869348,2026-05-21T16:07:37.869,-0.5009765625,0.19775390625,1.26171875,169.61669921875,63.1103515625,38.75732421875,10.4205322265625,5.1416015625,-20.830078125,1.371866731032214,185.080715658881
1779347257.869348,2026-05-21T16:07:37.869,-0.4716796875,0.18603515625,1.126953125,173.095703125,90.9423828125,36.1328125,11.2939453125,5.548095703125,-20.5499267578125,1.235764602547073,198.84219766215014
1779347257.869348,2026-05-21T16:07:37.869,-0.52734375,0.2119140625,1.03662109375,184.50927734375,128.23486328125,33.203125,12.227783203125,6.1358642578125,-20.23681640625,1.182193847284261,227.13498430765648
1779347257.869348,2026-05-21T16:07:37.869,-0.5498046875,0.2080078125,1.00732421875,193.29833984375,165.22216796875,25.146484375,13.20556640625,6.910400390625,-19.9072265625,1.16629950104521,255.52878243177582
1779347257.8703337,2026-05-21T16:07:37.870,-0.537109375,0.1796875,0.98779296875,197.6318359375,205.01708984375,12.75634765625,14.2108154296875,7.88818359375,-19.5721435546875,1.1386435032445752,285.049248568654
1779347257.928118,2026-05-21T16:07:37.928,-0.5029296875,0.20458984375,0.943359375,195.9228515625,235.65673828125,3.5400390625,15.2105712890625,9.0142822265625,-19.2205810546875,1.0884494407802723,306.4839211741833
1779347257.928118,2026-05-21T16:07:37.928,-0.4658203125,0.20361328125,0.89990234375,197.75390625,266.05224609375,-4.0283203125,16.2322998046875,10.2886962890625,-18.8360595703125,1.03357203915631,331.52169228152053
1779347257.928118,2026-05-21T16:07:37.928,-0.37109375,0.17919921875,0.8349609375,199.03564453125,289.48974609375,-9.3994140625,17.2705078125,11.678466796875,-18.4130859375,0.9311190570708731,351.43683624815463
1779347257.9291148,2026-05-21T16:07:37.929,-0.31640625,0.1513671875,0.79638671875,194.64111328125,306.0302734375,-17.578125,18.292236328125,13.1451416015625,-17.9736328125,0.8702050024517868,363.1097378453393
1779347257.9291148,2026-05-21T16:07:37.929,-0.224609375,0.16259765625,0.75146484375,186.09619140625,315.97900390625,-27.52685546875,19.2864990234375,14.666748046875,-17.523193359375,0.8009911238884584,367.73937936736536
1779347257.9291148,2026-05-21T16:07:37.929,-0.14453125,0.1494140625,0.7294921875,179.931640625,320.12939453125,-32.8369140625,20.2587890625,16.1993408203125,-17.05078125,0.7585332530106057,368.69565696668695
1779347257.9291148,2026-05-21T16:07:37.929,-0.12744140625,0.15087890625,0.73193359375,174.072265625,317.44384765625,-35.46142578125,21.214599609375,17.7154541015625,-16.5618896484375,0.7581111673349522,363.77089327358794
1779347257.9291148,2026-05-21T16:07:37.929,-0.14697265625,0.20556640625,0.763671875,165.34423828125,310.546875,-40.95458984375,22.1319580078125,19.193115234375,-16.06201171875,0.8043961969886085,354.1967774194765
1779347257.9592564,2026-05-21T16:07:37.959,-0.1376953125,0.20458984375,0.8232421875,158.99658203125,308.65478515625,-45.83740234375,23.0328369140625,20.6597900390625,-15.556640625,0.8593862359439481,350.212445454318
1779347257.960247,2026-05-21T16:07:37.960,-0.1416015625,0.2001953125,0.86572265625,155.1513671875,313.232421875,-42.96875,23.9447021484375,22.1319580078125,-14.9853515625,0.8997804638877028,352.18292169040643
1779347257.960247,2026-05-21T16:07:37.960,-0.19140625,0.25048828125,0.8857421875,150.2685546875,314.02587890625,-33.3251953125,24.873046875,23.57666015625,-14.326171875,0.9401701730537545,349.71911556752116
1779347257.960247,2026-05-21T16:07:37.960,-0.11279296875,0.2099609375,0.98681640625,148.681640625,317.44384765625,-16.9677734375,25.8563232421875,24.9884033203125,-13.53515625,1.0151908533470357,350.9483323926365
1779347257.960247,2026-05-21T16:07:37.960,-0.03857421875,0.2431640625,1.02783203125,153.62548828125,327.57568359375,15.2587890625,26.9769287109375,26.3507080078125,-12.5189208984375,1.0569084237090638,362.13181270805103
1779347257.960247,2026-05-21T16:07:37.960,-0.06640625,0.38525390625,0.9326171875,147.76611328125,313.4765625,47.66845703125,28.1634521484375,27.5592041015625,-11.326904296875,1.0112394279993024,349.82089884225576
1779347257.960247,2026-05-21T16:07:37.960,-0.10986328125,0.39111328125,0.86083984375,144.04296875,284.36279296875,79.89501953125,29.410400390625,28.5369873046875,-10.008544921875,0.9518848543414705,328.62408465783585
1779347257.960247,2026-05-21T16:07:37.960,-0.18212890625,0.39697265625,0.85693359375,145.263671875,262.87841796875,107.91015625,30.728759765625,29.3280029296875,-8.5748291015625,0.9618177646515436,319.14134614972704
1779347258.0182667,2026-05-21T16:07:38.018,-0.3466796875,0.4248046875,0.90087890625,147.39990234375,247.86376953125,131.16455078125,32.1295166015625,29.959716796875,-7.03125,1.0546225068588602,316.8080157427125
1779347258.0182667,2026-05-21T16:07:38.018,-0.54736328125,0.48974609375,0.958984375,149.2919921875,232.97119140625,153.3203125,33.5906982421875,30.443115234375,-5.394287109375,1.2079357720915012,316.3396800618882
1779347258.0182667,2026-05-21T16:07:38.018,-0.728515625,0.5595703125,1.06494140625,153.3203125,225.64697265625,159.1796875,35.09033203125,30.8441162109375,-3.7188720703125,1.4063975786548468,315.8509892443361
1779347258.0182667,2026-05-21T16:07:38.018,-0.8291015625,0.59814453125,1.1435546875,157.8369140625,227.60009765625,148.86474609375,36.617431640625,31.256103515625,-2.0654296875,1.5339177306842262,314.443967223835
1779347258.0192559,2026-05-21T16:07:38.019,-0.814453125,0.65478515625,1.15087890625,160.21728515625,235.595703125,138.36669921875,38.1610107421875,31.695556640625,-0.4010009765625,1.5545416528735403,316.73373241019704
1779347258.0192559,2026-05-21T16:07:38.019,-0.72509765625,0.64990234375,1.09228515625,165.95458984375,247.13134765625,131.16455078125,39.759521484375,32.16796875,1.29638671875,1.463293043130826,325.2982758427236
1779347258.0192559,2026-05-21T16:07:38.019,-0.56298828125,0.55810546875,1.10205078125,186.8896484375,239.6240234375,117.1875,41.4349365234375,32.618408203125,2.933349609375,1.3575542138445968,325.69974433167414
1779347258.0192559,2026-05-21T16:07:38.019,-0.4462890625,0.74853515625,0.98291015625,180.60302734375,238.22021484375,135.43701171875,43.143310546875,32.9644775390625,4.68017578125,1.3136175937877583,328.1912679966281
1779347258.0485647,2026-05-21T16:07:38.048,-0.43115234375,0.57177734375,0.7861328125,178.466796875,239.013671875,146.54541015625,44.8846435546875,33.233642578125,6.4984130859375,1.0634032505292073,332.3454380127042
1779347258.0485647,2026-05-21T16:07:38.048,-0.47314453125,0.46826171875,0.6416015625,194.03076171875,229.1259765625,140.31982421875,46.680908203125,33.4478759765625,8.2672119140625,0.9245471051822767,331.41560418552797
1779347258.0485647,2026-05-21T16:07:38.048,-0.54296875,0.451171875,0.56884765625,188.04931640625,213.56201171875,127.197265625,48.3837890625,33.6181640625,9.931640625,0.9066194241735042,311.68962548133396
1779347258.0485647,2026-05-21T16:07:38.048,-0.5361328125,0.40771484375,0.4970703125,171.630859375,203.67431640625,104.6142578125,49.94384765625,33.804931640625,11.480712890625,0.8371073300491967,286.15471687710215
1779347258.0485647,2026-05-21T16:07:38.048,-0.46484375,0.4462890625,0.427734375,158.5693359375,206.60400390625,83.49609375,51.4105224609375,34.0521240234375,12.974853515625,0.7734405825775061,273.49779962782566
1779347258.0485647,2026-05-21T16:07:38.048,-0.39599609375,0.46923828125,0.37548828125,155.70068359375,213.68408203125,66.10107421875,52.855224609375,34.365234375,14.4580078125,0.719714471309138,272.530625431293
1779347258.0485647,2026-05-21T16:07:38.048,-0.35107421875,0.4482421875,0.3388671875,151.4892578125,216.6748046875,51.69677734375,54.2724609375,34.716796875,15.919189453125,0.6625746271099341,269.3873104039565
1779347258.0485647,2026-05-21T16:07:38.048,-0.31201171875,0.43798828125,0.2939453125,140.380859375,217.71240234375,40.283203125,55.634765625,35.09033203125,17.3748779296875,0.6128530769200566,262.1606611739458
1779347258.0781145,2026-05-21T16:07:38.078,-0.265625,0.439453125,0.25927734375,131.103515625,215.27099609375,30.517578125,56.942138671875,35.474853515625,18.8031005859375,0.575239455078771,253.89181976394084
1779347258.0781145,2026-05-21T16:07:38.078,-0.251953125,0.4736328125,0.24755859375,125.0,213.31787109375,25.32958984375,58.2220458984375,35.8538818359375,20.225830078125,0.5908414978768869,248.53792919717978
1779347258.0781145,2026-05-21T16:07:38.078,-0.294921875,0.501953125,0.23291015625,119.56787109375,214.2333984375,21.8505859375,59.4854736328125,36.221923828125,21.6650390625,0.6270430550888676,246.3125512631955
1779347258.0781145,2026-05-21T16:07:38.078,-0.35791015625,0.51025390625,0.2470703125,116.943359375,221.8017578125,14.2822265625,60.765380859375,36.62841796875,23.1427001953125,0.6704494523147371,251.14886236295774
1779347258.0781145,2026-05-21T16:07:38.078,-0.4189453125,0.5576171875,0.2744140625,115.90576171875,233.45947265625,1.708984375,62.0782470703125,37.08984375,24.6697998046875,0.74950328909144,260.6537772604341
1779347258.0781145,2026-05-21T16:07:38.078,-0.47900390625,0.6044921875,0.29833984375,111.38916015625,249.8779296875,-10.55908203125,63.4295654296875,37.6226806640625,26.279296875,0.8269596177081855,273.7846214793091
1779347258.0781145,2026-05-21T16:07:38.078,-0.48583984375,0.64794921875,0.3486328125,116.0888671875,266.05224609375,-24.658203125,64.86328125,38.2269287109375,27.9766845703125,0.881716157164776,291.3219005117193
1779347258.0781145,2026-05-21T16:07:38.078,-0.49951171875,0.7001953125,0.40380859375,120.4833984375,285.888671875,-33.0810546875,66.412353515625,38.880615234375,29.8004150390625,0.9501825157315327,311.9982983683375
1779347258.1084528,2026-05-21T16:07:38.108,-0.509765625,0.72265625,0.47998046875,128.173828125,309.75341796875,-40.8935546875,68.1207275390625,39.5782470703125,31.79443359375,1.0062178186044872,337.70992430563797
1779347258.1084528,2026-05-21T16:07:38.108,-0.498046875,0.75048828125,0.5888671875,142.2119140625,339.2333984375,-54.5654296875,70.037841796875,40.3472900390625,33.980712890625,1.0761263469058848,371.86141670487547
1779347258.1084528,2026-05-21T16:07:38.108,-0.48193359375,0.76171875,0.6494140625,151.67236328125,364.80712890625,-65.36865234375,72.158203125,41.1492919921875,36.36474609375,1.1109518745018194,400.45200435680033
1779347258.1084528,2026-05-21T16:07:38.108,-0.45556640625,0.73876953125,0.6357421875,160.82763671875,383.4228515625,-74.462890625,74.454345703125,41.9622802734375,38.9190673828125,1.075866766739344,422.40186305589117
1779347258.1084528,2026-05-21T16:07:38.108,-0.40869140625,0.7373046875,0.5927734375,170.0439453125,395.44677734375,-80.2001953125,76.915283203125,42.73681640625,41.6217041015625,1.0305470469404303,437.86432644959905
1779347258.1084528,2026-05-21T16:07:38.108,-0.37548828125,0.705078125,0.5302734375,178.5888671875,410.15625,-85.99853515625,79.5574951171875,43.4674072265625,44.483642578125,0.9588099552193131,455.5413054228977
1779347258.1084528,2026-05-21T16:07:38.108,-0.40576171875,0.6533203125,0.41162109375,185.48583984375,421.630859375,-91.796875,82.364501953125,44.14306640625,47.4993896484375,0.8722969264808847,469.6852612331027
